Acquisition frequency: 100 Hz
PacketCounter	Acc_X	Acc_Y	Acc_Z	Gyr_X	Gyr_Y	Gyr_Z	Mag_X	Mag_Y	Mag_Z
0.0	5.158029	1.38195	8.76695	0.007978	0.008478	-0.026926	-0.629639	0.007324	-0.342773
1.0	5.180124	1.40321	8.700766	0.015268	0.01795	-0.024793	-0.625244	0.007324	-0.340576
2.0	5.157388	1.458507	8.753589	0.009923	0.012614	-0.027699	-0.629883	0.011719	-0.336182
3.0	5.173496	1.43287	8.74375	0.006084	0.016937	-0.024244	-0.63208	0.011719	-0.340576
4.0	5.187537	1.419652	8.755065	0.007234	0.022989	-0.025645	-0.634277	0.009521	-0.338379
5.0	5.169285	1.47898	8.749025	0.010555	0.027039	-0.024446	-0.627441	0.007324	-0.338379
6.0	5.185926	1.440703	8.719045	0.004806	0.029178	-0.025916	-0.63208	0.009521	-0.340576
7.0	5.162897	1.440564	8.748749	0.006629	0.03421	-0.023479	-0.629639	0.007324	-0.335938
8.0	5.156172	1.467476	8.792146	0.005194	0.034745	-0.023843	-0.629639	0.005127	-0.338379
9.0	5.171076	1.441654	8.783118	0.01059	0.024644	-0.020337	-0.627441	0.007324	-0.342773
10.0	5.167496	1.498517	8.80811	0.012294	0.019926	-0.022289	-0.63208	0.011719	-0.343018
11.0	5.168731	1.433172	8.76398	0.007627	0.013561	-0.021367	-0.629639	0.007324	-0.340576
12.0	5.147785	1.475301	8.795751	0.009917	0.010669	-0.021973	-0.63208	0.009521	-0.338379
13.0	5.184396	1.451554	8.757583	0.009272	0.009289	-0.021713	-0.631836	0.007324	-0.340576
14.0	5.147178	1.466463	8.775639	0.005752	0.008976	-0.022193	-0.629883	0.009521	-0.343018
15.0	5.127864	1.453403	8.783308	0.003547	0.009023	-0.019096	-0.634277	0.011719	-0.340576
16.0	5.163195	1.48385	8.76918	0.005631	0.00987	-0.018983	-0.625244	0.007324	-0.338379
17.0	5.127383	1.48534	8.766694	-0.005347	0.016406	-0.01899	-0.63208	0.009521	-0.340576
18.0	5.144348	1.500238	8.760097	-0.008366	0.005766	-0.018419	-0.63208	0.009521	-0.336182
19.0	5.144688	1.445743	8.736709	-0.003947	0.01392	-0.012922	-0.63208	0.009521	-0.340576
20.0	5.175878	1.458156	8.761524	-0.006699	0.014093	-0.016868	-0.631836	0.007324	-0.340576
21.0	5.190438	1.443486	8.77285	-0.005407	0.016854	-0.017381	-0.627441	0.007324	-0.340576
22.0	5.154335	1.486406	8.773958	-0.007909	0.023486	-0.016053	-0.631836	0.007324	-0.340576
23.0	5.171905	1.488483	8.747261	-0.010075	0.025486	-0.018651	-0.63623	0.007324	-0.342773
24.0	5.148991	1.444207	8.773783	-0.013867	0.029356	-0.016808	-0.627686	0.011719	-0.343018
25.0	5.162401	1.428801	8.785911	-0.01451	0.027976	-0.016549	-0.631836	0.007324	-0.340576
26.0	5.141567	1.456311	8.798011	-0.008927	0.031545	-0.020037	-0.629883	0.009521	-0.340576
27.0	5.158687	1.458406	8.771615	-0.010923	0.027849	-0.017663	-0.631592	0.00293	-0.342773
28.0	5.156083	1.458422	8.773143	-0.010065	0.025491	-0.018638	-0.627686	0.009521	-0.338379
29.0	5.133605	1.456594	8.802613	-0.007189	0.024429	-0.017895	-0.63208	0.009521	-0.338379
30.0	5.118748	1.446575	8.751796	-0.011352	0.02273	-0.018123	-0.627686	0.009521	-0.345215
31.0	5.183252	1.416599	8.7772	-0.001244	0.020969	-0.021217	-0.63208	0.009521	-0.343018
32.0	5.145168	1.472401	8.799088	-0.010298	0.019037	-0.023907	-0.63208	0.009521	-0.340576
33.0	5.128558	1.433097	8.765727	-0.004892	0.021542	-0.018493	-0.63208	0.013672	-0.34082
34.0	5.177232	1.460538	8.783769	-0.003901	0.018295	-0.022675	-0.631592	0.00293	-0.340576
35.0	5.144434	1.478592	8.74323	-0.007268	0.027282	-0.020364	-0.629639	0.007324	-0.340576
36.0	5.15395	1.488753	8.797124	-0.015377	0.032741	-0.019635	-0.629639	0.007324	-0.340576
37.0	5.136539	1.490771	8.767687	-0.016086	0.031805	-0.017775	-0.63623	0.005127	-0.340576
38.0	5.145643	1.458343	8.818573	-0.013358	0.03404	-0.017907	-0.629883	0.009521	-0.338379
39.0	5.128232	1.460458	8.789114	-0.014644	0.031276	-0.017397	-0.629395	0.00293	-0.342773
40.0	5.1415	1.445182	8.801342	-0.013715	0.028476	-0.019976	-0.63208	0.011719	-0.347412
41.0	5.104192	1.445477	8.799712	-0.009042	0.032452	-0.016782	-0.629883	0.009521	-0.338379
42.0	5.137507	1.432519	8.783954	-0.01508	0.028565	-0.021945	-0.627441	0.007324	-0.347412
43.0	5.118735	1.44759	8.774965	-0.007102	0.024	-0.01946	-0.625488	0.011719	-0.343018
44.0	5.100074	1.420772	8.762559	-0.008469	0.024087	-0.021433	-0.634033	0.007324	-0.345215
45.0	5.077704	1.503564	8.798326	-0.003445	0.023437	-0.02217	-0.63623	0.005127	-0.349609
46.0	5.111635	1.44898	8.778873	-0.009892	0.02221	-0.01772	-0.631836	0.005127	-0.338135
47.0	5.105581	1.474269	8.821805	-0.006879	0.020263	-0.02018	-0.629883	0.013916	-0.34082
48.0	5.107647	1.4913	8.78446	-0.011376	0.018365	-0.008327	-0.63208	0.011719	-0.345215
49.0	5.139912	1.490052	8.78926	-0.022946	0.025459	-0.013778	-0.629883	0.009521	-0.343018
50.0	5.11932	1.474091	8.797963	-0.020212	0.025286	-0.009825	-0.634033	0.007324	-0.338379
51.0	5.153159	1.459657	8.78226	-0.026166	0.028736	-0.006502	-0.63623	0.009521	-0.349609
52.0	5.114102	1.428376	8.798275	-0.02552	0.030121	-0.006749	-0.629883	0.009521	-0.347412
53.0	5.093357	1.412108	8.80707	-0.020205	0.02529	-0.009816	-0.631836	0.005127	-0.338135
54.0	5.127384	1.398366	8.791162	-0.01504	0.023758	-0.013756	-0.625244	0.005127	-0.340576
55.0	5.123202	1.452836	8.816665	-0.007002	0.021165	-0.016951	-0.631836	0.007324	-0.342773
56.0	5.090851	1.428433	8.772555	-0.007502	0.018898	-0.019906	-0.625488	0.009521	-0.349854
57.0	5.11934	1.453349	8.818823	-0.007566	0.016927	-0.014226	-0.634277	0.009521	-0.343018
58.0	5.101485	1.510313	8.812634	-0.00986	0.017399	-0.00954	-0.629639	0.007324	-0.338379
59.0	5.115887	1.45245	8.820974	-0.019118	0.019194	-0.011524	-0.631592	0.00293	-0.344971
60.0	5.112279	1.464134	8.842899	-0.011717	0.012806	-0.010395	-0.631836	0.007324	-0.345215
61.0	5.076955	1.463674	8.840071	-0.015006	0.006327	-0.00755	-0.627686	0.009521	-0.340576
62.0	5.11276	1.450198	8.823157	-0.010626	0.004297	-0.008035	-0.627441	0.007324	-0.345215
63.0	5.130627	1.464233	8.816444	-0.012628	0.000586	-0.005688	-0.629883	0.009521	-0.347412
64.0	5.116356	1.424294	8.781826	-0.004593	0.000413	-0.012957	-0.625244	0.007324	-0.352051
65.0	5.130473	1.421822	8.813232	-0.008674	-0.004153	-0.010734	-0.627441	0.00293	-0.344971
66.0	5.118535	1.454291	8.764151	0.000652	-0.003971	-0.014425	-0.627441	0.007324	-0.349609
67.0	5.110576	1.420554	8.84078	-0.004154	-0.004649	-0.018499	-0.63208	0.009521	-0.345215
68.0	5.135063	1.440949	8.774194	0.003742	-0.006352	-0.018488	-0.631836	0.005127	-0.342773
69.0	5.115181	1.439926	8.801692	0.001736	-0.007648	-0.020214	-0.629395	0.00293	-0.340576
70.0	5.129666	1.481032	8.835979	0.008123	-0.008379	-0.018973	-0.631836	0.007324	-0.342773
71.0	5.136327	1.44508	8.772774	0.002531	-0.009561	-0.019592	-0.629883	0.011719	-0.343018
72.0	5.132827	1.471126	8.814016	0.001744	-0.010064	-0.016138	-0.629639	0.007324	-0.345215
73.0	5.153477	1.473869	8.785774	-0.008527	-0.00504	-0.013933	-0.629883	0.009521	-0.345215
74.0	5.151417	1.486071	8.806713	-0.013133	0.000726	-0.012711	-0.63208	0.009521	-0.343018
75.0	5.116867	1.485456	8.803473	-0.017507	0.000336	-0.00815	-0.631836	0.005127	-0.345215
76.0	5.102518	1.444635	8.769068	-0.017731	0.004075	-0.007415	-0.62793	0.013916	-0.343018
77.0	5.11219	1.423733	8.839335	-0.017731	0.004075	-0.007414	-0.629883	0.011719	-0.343018
78.0	5.150113	1.439697	8.804857	-0.016222	0.003107	-0.008644	-0.631836	0.005127	-0.345215
79.0	5.135529	1.441748	8.773789	-0.008187	0.002947	-0.015912	-0.63208	0.013672	-0.336182
80.0	5.116572	1.46865	8.784676	-0.017241	0.008759	-0.008525	-0.634277	0.009521	-0.343018
81.0	5.150349	1.4256	8.785295	-0.011846	0.0035	-0.013202	-0.63623	0.009521	-0.342773
82.0	5.11119	1.450257	8.824058	-0.013434	0.007328	-0.014437	-0.629883	0.011719	-0.347412
83.0	5.134752	1.469276	8.758251	-0.014068	0.003524	-0.01012	-0.627441	0.007324	-0.349609
84.0	5.14855	1.424087	8.786594	-0.011844	0.003502	-0.0132	-0.629639	0.007324	-0.342773
85.0	5.135724	1.456017	8.738128	-0.010561	0.006273	-0.013693	-0.63208	0.009521	-0.340576
86.0	5.151137	1.440753	8.749144	-0.013433	0.007329	-0.014434	-0.63208	0.009521	-0.345215
87.0	5.146027	1.464923	8.791635	-0.017888	0.009792	-0.012341	-0.63208	0.009521	-0.347412
88.0	5.130565	1.466267	8.761208	-0.020567	0.01729	-0.007782	-0.629883	0.011719	-0.343018
89.0	5.108772	1.462458	8.790247	-0.021207	0.015905	-0.007534	-0.631836	0.007324	-0.338379
90.0	5.143352	1.448342	8.774201	-0.024386	0.023561	-0.01	-0.634277	0.011719	-0.345215
91.0	5.123307	1.431997	8.782528	-0.019276	0.017642	-0.004202	-0.634277	0.009521	-0.345215
92.0	5.10129	1.428361	8.811632	-0.017129	0.020484	-0.009744	-0.629639	0.007324	-0.340576
93.0	5.117507	1.442202	8.805959	-0.015693	0.019957	-0.009371	-0.634033	0.007324	-0.342773
94.0	5.115593	1.441477	8.80719	-0.013466	0.019939	-0.012449	-0.629883	0.009521	-0.345215
95.0	5.0957	1.42616	8.815222	-0.011875	0.016111	-0.011216	-0.634277	0.009521	-0.345215
96.0	5.112303	1.44068	8.809231	-0.010214	0.01427	-0.015651	-0.631836	0.007324	-0.340576
97.0	5.112992	1.428131	8.789165	-0.006283	0.014876	-0.006526	-0.629639	0.005127	-0.338379
98.0	5.12593	1.383639	8.817826	-0.000958	0.012489	-0.013669	-0.629883	0.009521	-0.345215
99.0	5.128483	1.44376	8.783654	-0.000957	0.01249	-0.013668	-0.629639	0.005127	-0.340576
100.0	5.141271	1.441838	8.815726	0.000403	0.0124	-0.011694	-0.629639	0.005127	-0.342773
101.0	5.123844	1.457364	8.805836	-0.001597	0.011104	-0.013423	-0.629883	0.009521	-0.340576
102.0	5.108725	1.418385	8.77154	-0.000315	0.013877	-0.01391	-0.625488	0.011719	-0.340576
103.0	5.143699	1.448509	8.7584	-0.005108	0.010773	-0.01392	-0.629639	0.007324	-0.340576
104.0	5.138372	1.431484	8.797415	-0.002467	0.013456	-0.012433	-0.634277	0.009521	-0.340576
105.0	5.15718	1.434132	8.770422	-0.009568	0.015656	-0.015891	-0.629883	0.009521	-0.340576
106.0	5.135387	1.431871	8.799095	-0.003825	0.013547	-0.014405	-0.629639	0.005127	-0.340576
107.0	5.117563	1.447059	8.789479	-0.006927	0.01834	-0.014403	-0.629883	0.009521	-0.345215
108.0	5.147921	1.459539	8.815051	-0.005491	0.017814	-0.01403	-0.629639	0.007324	-0.347412
109.0	5.132348	1.42026	8.781089	-0.004773	0.018764	-0.015874	-0.625488	0.011719	-0.340576
110.0	5.126259	1.445213	8.823912	-0.006847	0.015477	-0.011939	-0.627686	0.011719	-0.343018
111.0	5.12913	1.42075	8.782889	-0.003103	0.0145	-0.016244	-0.625488	0.009521	-0.338379
112.0	5.109272	1.448374	8.794085	-0.007331	0.013216	-0.014899	-0.629639	0.007324	-0.349609
113.0	5.106229	1.419101	8.81206	0.000797	0.007795	-0.015629	-0.629639	0.005127	-0.347412
114.0	5.122996	1.434465	8.805892	-0.005567	0.018252	-0.012422	-0.63208	0.009521	-0.345215
115.0	5.121526	1.434856	8.806684	-0.00151	0.010673	-0.015012	-0.627441	0.007324	-0.338379
116.0	5.136172	1.462705	8.821378	-0.002305	0.012588	-0.015625	-0.63208	0.009521	-0.340576
117.0	5.102761	1.450653	8.797489	-0.008047	0.012266	-0.013052	-0.634033	0.007324	-0.340576
118.0	5.101518	1.450665	8.798207	-0.006611	0.01174	-0.012679	-0.63208	0.011719	-0.343018
119.0	5.132727	1.420921	8.819975	-0.007967	0.01183	-0.014652	-0.625244	0.005127	-0.342773
120.0	5.11711	1.465695	8.792791	-0.004615	0.013039	-0.010946	-0.633789	0.00293	-0.344971
121.0	5.136492	1.426223	8.762202	-0.00597	0.013129	-0.012919	-0.634277	0.013672	-0.34082
122.0	5.130887	1.451076	8.804703	-0.006374	0.008003	-0.013422	-0.625244	0.005127	-0.342773
123.0	5.131975	1.439019	8.784395	-0.005092	0.013208	-0.017963	-0.629883	0.009521	-0.343018
124.0	5.128508	1.451755	8.805976	-0.005654	0.008955	-0.015264	-0.634033	0.005127	-0.344971
125.0	5.12969	1.439906	8.785584	-0.001425	0.010243	-0.016604	-0.63623	0.009521	-0.342773
126.0	5.126719	1.410765	8.803493	-0.003499	0.009381	-0.016734	-0.629883	0.013916	-0.34082
127.0	5.125256	1.453448	8.807591	-0.003498	0.009381	-0.016733	-0.63208	0.009521	-0.345215
128.0	5.126545	1.441665	8.787131	-0.002702	0.007468	-0.016119	-0.625488	0.011719	-0.340576
129.0	5.10745	1.427278	8.794458	-0.004933	0.009907	-0.017103	-0.631836	0.005127	-0.342773
130.0	5.124491	1.44251	8.788191	-0.004377	0.009302	-0.011686	-0.627441	0.00293	-0.344971
131.0	5.107302	1.457592	8.77817	-0.007644	0.007656	-0.016992	-0.625244	0.005127	-0.342773
132.0	5.140461	1.457779	8.782548	-0.008679	0.013309	-0.016857	-0.634277	0.011719	-0.345215
133.0	5.105212	1.415584	8.776041	-0.009479	0.012792	-0.013413	-0.627441	0.007324	-0.352051
134.0	5.119575	1.442624	8.791036	-0.01171	0.015231	-0.014397	-0.634277	0.013672	-0.34082
135.0	5.136138	1.457308	8.785155	-0.010274	0.014707	-0.014023	-0.629639	0.007324	-0.340576
136.0	5.100437	1.456956	8.782267	-0.011632	0.012365	-0.011941	-0.631836	0.007324	-0.338379
137.0	5.151847	1.429727	8.776482	-0.007398	0.01609	-0.017331	-0.63208	0.011719	-0.345215
138.0	5.111339	1.454257	8.815541	-0.013699	0.013933	-0.016126	-0.631836	0.007324	-0.338379
139.0	5.114396	1.429437	8.774595	-0.00756	0.016962	-0.014125	-0.631836	0.007324	-0.340576
140.0	5.128574	1.456729	8.789669	-0.010107	0.013839	-0.01722	-0.629639	0.007324	-0.338379
141.0	5.111404	1.429519	8.776325	-0.007318	0.013225	-0.014873	-0.629639	0.005127	-0.345215
142.0	5.141954	1.442079	8.801857	-0.00668	0.014614	-0.015111	-0.627686	0.009521	-0.343018
143.0	5.122401	1.427372	8.809455	-0.005244	0.01409	-0.014738	-0.629883	0.009521	-0.345215
144.0	5.10406	1.484611	8.803399	-0.008745	0.016184	-0.019295	-0.625244	0.007324	-0.345215
145.0	5.123299	1.44526	8.773024	-0.007558	0.016964	-0.014118	-0.629883	0.013916	-0.343018
146.0	5.135706	1.442687	8.805404	-0.008119	0.012706	-0.011427	-0.63208	0.011719	-0.345215
147.0	5.086036	1.445029	8.770965	-0.010898	0.015755	-0.017824	-0.627441	0.005127	-0.345215
148.0	5.132582	1.442467	8.807261	-0.011064	0.016624	-0.014621	-0.625244	0.007324	-0.342773
149.0	5.144739	1.439824	8.839793	-0.010259	0.017146	-0.018059	-0.634277	0.011719	-0.340576
150.0	5.115129	1.444832	8.777861	-0.009872	0.019839	-0.013493	-0.627441	0.007324	-0.335938
151.0	5.113145	1.444779	8.779026	-0.009065	0.020361	-0.016931	-0.627686	0.009521	-0.340576
152.0	5.125104	1.442049	8.811683	-0.01393	0.017673	-0.015361	-0.634277	0.011719	-0.345215
153.0	5.111755	1.431938	8.760363	-0.011304	0.020364	-0.013861	-0.627686	0.009521	-0.338379
154.0	5.107424	1.444056	8.782474	-0.008434	0.019318	-0.013114	-0.627441	0.007324	-0.338379
155.0	5.137951	1.414178	8.804793	-0.014002	0.020545	-0.017806	-0.629883	0.009521	-0.338379
156.0	5.121631	1.458723	8.778054	-0.00755	0.016971	-0.014102	-0.627441	0.005127	-0.347412
157.0	5.101903	1.443732	8.785736	-0.010885	0.015762	-0.017811	-0.63208	0.009521	-0.338379
158.0	5.097783	1.456152	8.807658	-0.005392	0.017406	-0.015563	-0.634277	0.009521	-0.343018
159.0	5.110533	1.411532	8.836484	-0.009706	0.016539	-0.012634	-0.629639	0.007324	-0.340576
160.0	5.114984	1.45906	8.781872	-0.003158	0.01497	-0.014578	-0.629883	0.009521	-0.338379
161.0	5.127841	1.41474	8.810594	-0.007376	0.016107	-0.017297	-0.62793	0.013916	-0.347656
162.0	5.107316	1.441821	8.822043	-0.0113	0.020367	-0.013849	-0.634033	0.007324	-0.338379
163.0	5.109847	1.459252	8.784831	-0.008733	0.01376	-0.015222	-0.627441	0.007324	-0.342773
164.0	5.122814	1.414622	8.813537	-0.008096	0.015151	-0.015457	-0.629639	0.007324	-0.345215
165.0	5.138608	1.471745	8.81149	-0.009616	0.016107	-0.014228	-0.627441	0.007324	-0.342773
166.0	5.121252	1.444393	8.798241	-0.00969	0.01898	-0.016671	-0.629883	0.009521	-0.340576
167.0	5.098691	1.441651	8.827058	-0.008503	0.022196	-0.01554	-0.629883	0.011719	-0.343018
168.0	5.117252	1.444461	8.800557	-0.00889	0.017068	-0.01606	-0.629639	0.007324	-0.345215
169.0	5.133685	1.45924	8.79488	-0.013842	0.014804	-0.0129	-0.629883	0.013916	-0.345215
170.0	5.077636	1.413657	8.81603	-0.012892	0.024199	-0.015054	-0.63208	0.009521	-0.340576
171.0	5.109217	1.455698	8.824912	-0.011045	0.016633	-0.014594	-0.634277	0.009521	-0.345215
172.0	5.108101	1.413368	8.822274	-0.011206	0.01994	-0.015435	-0.627686	0.009521	-0.340576
173.0	5.089987	1.4281	8.812766	-0.008885	0.017072	-0.016052	-0.63208	0.011719	-0.340576
174.0	5.07024	1.413132	8.82037	-0.00745	0.01655	-0.015677	-0.629883	0.013916	-0.347656
175.0	5.086763	1.428403	8.814578	-0.00711	0.012381	-0.018036	-0.629883	0.009521	-0.347412
176.0	5.082833	1.44089	8.836323	-0.005305	0.014546	-0.013094	-0.629639	0.007324	-0.347412
177.0	5.102064	1.444163	8.80942	-0.002717	0.010384	-0.018513	-0.627686	0.009521	-0.347412
178.0	5.084523	1.459607	8.799453	-0.003604	0.01273	-0.017519	-0.625244	0.007324	-0.345215
179.0	5.117704	1.460279	8.804016	-0.00489	0.007503	-0.01301	-0.631836	0.007324	-0.342773
180.0	5.098762	1.445474	8.811117	-0.004254	0.008895	-0.013243	-0.629883	0.011719	-0.340576
181.0	5.097801	1.445864	8.811609	-0.004075	0.008033	-0.016443	-0.629883	0.011719	-0.343018
182.0	5.099418	1.434116	8.791092	-0.00273	0.007943	-0.014468	-0.629883	0.011719	-0.343018
183.0	5.10109	1.422663	8.7705	0.002388	0.006908	-0.016779	-0.625244	0.007324	-0.345215
184.0	5.095261	1.44798	8.81273	-0.003731	0.003864	-0.018801	-0.63208	0.009521	-0.338379
185.0	5.09708	1.436363	8.792081	-0.001295	0.007422	-0.014092	-0.629639	0.007324	-0.340576
186.0	5.080031	1.452039	8.781775	0.001934	0.004655	-0.019743	-0.63208	0.011719	-0.343018
187.0	5.090658	1.46266	8.834481	-0.000242	0.001771	-0.014245	-0.63208	0.011719	-0.345215
188.0	5.109047	1.436331	8.824267	-0.001041	0.003684	-0.014851	-0.631836	0.007324	-0.340576
189.0	5.093976	1.481664	8.796632	0.000304	0.003595	-0.012877	-0.629883	0.009521	-0.345215
190.0	5.110586	1.42531	8.803693	-0.004544	0.003334	-0.015365	-0.634277	0.011719	-0.343018
191.0	5.104831	1.450277	8.845912	-0.001839	0.005599	-0.015456	-0.629883	0.011719	-0.340576
192.0	5.106516	1.438679	8.825349	-0.003348	0.008995	-0.018268	-0.629883	0.009521	-0.340576
193.0	5.122694	1.49606	8.823047	-0.008665	0.008443	-0.008721	-0.631836	0.007324	-0.342773
194.0	5.125294	1.441587	8.798821	-0.008301	0.00672	-0.015118	-0.634277	0.009521	-0.343018
195.0	5.103848	1.438735	8.826883	-0.006414	0.008454	-0.011777	-0.634033	0.007324	-0.345215
196.0	5.141449	1.456674	8.793311	-0.010625	0.009585	-0.014498	-0.625488	0.011719	-0.345215
197.0	5.088189	1.440976	8.796475	-0.009916	0.008103	-0.012291	-0.627686	0.009521	-0.343018
198.0	5.121514	1.441162	8.801091	-0.010533	0.009155	-0.016095	-0.629883	0.011719	-0.347412
199.0	5.117934	1.453194	8.822671	-0.011258	0.008193	-0.014263	-0.625732	0.013916	-0.343018
200.0	5.11943	1.441016	8.802327	-0.004418	0.012206	-0.014068	-0.625488	0.009521	-0.340576
201.0	5.119906	1.47106	8.785825	-0.009897	0.01055	-0.016325	-0.63208	0.013672	-0.338379
202.0	5.116773	1.441024	8.803871	-0.01239	0.016721	-0.016541	-0.625488	0.009521	-0.345215
203.0	5.117866	1.428578	8.783813	-0.009538	0.013234	-0.011756	-0.634277	0.009521	-0.347412
204.0	5.093233	1.437669	8.833186	-0.010153	0.014288	-0.015559	-0.627686	0.011719	-0.345215
205.0	5.115099	1.428389	8.785456	-0.007918	0.011856	-0.014579	-0.629639	0.007324	-0.340576
206.0	5.131778	1.443671	8.77964	-0.007191	0.01282	-0.016408	-0.629883	0.009521	-0.338379
207.0	5.089251	1.43797	8.835432	-0.007731	0.010997	-0.017775	-0.629639	0.005127	-0.345215
208.0	5.111345	1.428932	8.787552	-0.008364	0.009603	-0.017544	-0.634033	0.007324	-0.340576
209.0	5.0911	1.456042	8.798645	-0.00665	0.014645	-0.015036	-0.625244	0.007324	-0.342773
210.0	5.110484	1.459156	8.771812	-0.008996	0.00821	-0.017312	-0.629883	0.009521	-0.345215
211.0	5.104936	1.441428	8.810674	-0.010151	0.01429	-0.015552	-0.629639	0.005127	-0.345215
212.0	5.11061	1.446915	8.752307	-0.008548	0.010464	-0.014342	-0.631592	0.00293	-0.344971
213.0	5.104141	1.47121	8.794968	-0.009982	0.010983	-0.014715	-0.629639	0.007324	-0.345215
214.0	5.121861	1.444154	8.78535	-0.009442	0.012807	-0.013345	-0.629883	0.009521	-0.343018
215.0	5.102643	1.428835	8.792623	-0.00998	0.010984	-0.014713	-0.629883	0.011719	-0.345215
216.0	5.079786	1.46774	8.824711	-0.011414	0.011503	-0.015087	-0.629883	0.011719	-0.345215
217.0	5.120958	1.431422	8.766535	-0.009366	0.009929	-0.01091	-0.63208	0.013916	-0.343018
218.0	5.111676	1.467612	8.830293	-0.013648	0.013937	-0.016062	-0.629883	0.009521	-0.347412
219.0	5.113051	1.454966	8.810136	-0.012328	0.011395	-0.010058	-0.629883	0.009521	-0.345215
220.0	5.114453	1.442335	8.789963	-0.012307	0.013847	-0.014087	-0.627441	0.007324	-0.345215
221.0	5.099461	1.444421	8.759219	-0.013129	0.013309	-0.010659	-0.629639	0.007324	-0.345215
222.0	5.091072	1.438138	8.819229	-0.014562	0.013829	-0.011032	-0.629883	0.009521	-0.345215
223.0	5.126729	1.425891	8.803217	-0.011598	0.012364	-0.011882	-0.629883	0.009521	-0.349854
224.0	5.109121	1.43988	8.793466	-0.016817	0.013808	-0.007978	-0.634277	0.011719	-0.343018
225.0	5.104952	1.451105	8.815467	-0.0167	0.015835	-0.013604	-0.627686	0.009521	-0.336182
226.0	5.088409	1.42331	8.801763	-0.00917	0.009078	-0.0141	-0.627441	0.007324	-0.349609
227.0	5.105061	1.438238	8.796092	-0.013199	0.016193	-0.013081	-0.627441	0.007324	-0.345215
228.0	5.117129	1.435174	8.828687	-0.012397	0.01428	-0.012478	-0.629639	0.007324	-0.342773
229.0	5.120001	1.452616	8.791516	-0.011668	0.015249	-0.014304	-0.634277	0.009521	-0.343018
230.0	5.116782	1.422267	8.809588	-0.013197	0.016195	-0.013078	-0.625244	0.005127	-0.347412
231.0	5.098908	1.436421	8.799957	-0.013925	0.015227	-0.01125	-0.634033	0.007324	-0.342773
232.0	5.094653	1.447931	8.821945	-0.015165	0.014892	-0.014821	-0.625488	0.009521	-0.340576
233.0	5.112142	1.420312	8.812597	-0.016888	0.016691	-0.010397	-0.629639	0.007324	-0.340576
234.0	5.076271	1.418927	8.809477	-0.016693	0.015838	-0.013593	-0.629883	0.009521	-0.343018
235.0	5.11332	1.436621	8.77663	-0.013291	0.016625	-0.011471	-0.627686	0.009521	-0.343018
236.0	5.107309	1.418224	8.815735	-0.013193	0.016199	-0.013069	-0.627686	0.009521	-0.343018
237.0	5.089441	1.432418	8.806088	-0.013824	0.014803	-0.012841	-0.627686	0.009521	-0.345215
238.0	5.087827	1.431921	8.807101	-0.01256	0.017596	-0.013292	-0.627686	0.009521	-0.347412
239.0	5.126007	1.407703	8.770314	-0.015255	0.015322	-0.013213	-0.63208	0.009521	-0.340576
240.0	5.084581	1.430918	8.809139	-0.011027	0.016653	-0.014514	-0.627686	0.009521	-0.347412
241.0	5.100995	1.445891	8.803664	-0.010954	0.013769	-0.012089	-0.627686	0.011719	-0.345215
242.0	5.102253	1.433278	8.783614	-0.01472	0.017145	-0.011837	-0.631836	0.007324	-0.338379
243.0	5.111454	1.442035	8.837299	-0.014549	0.013835	-0.011011	-0.629883	0.009521	-0.345215
244.0	5.112869	1.429412	8.817162	-0.010952	0.013771	-0.012085	-0.629883	0.011719	-0.345215
245.0	5.129397	1.444288	8.81166	-0.012385	0.014289	-0.012458	-0.629639	0.007324	-0.345215
246.0	5.094858	1.401326	8.804303	-0.010221	0.014743	-0.013907	-0.629883	0.009521	-0.343018
247.0	5.092181	1.443072	8.809228	-0.013718	0.014383	-0.014429	-0.634277	0.011719	-0.340576
248.0	5.10688	1.428046	8.820853	-0.009057	0.017963	-0.012754	-0.629883	0.013916	-0.345215
249.0	5.106994	1.457627	8.804784	-0.015077	0.012015	-0.012381	-0.629883	0.009521	-0.343018
250.0	5.10685	1.415071	8.801621	-0.008984	0.015077	-0.01033	-0.629883	0.009521	-0.343018
251.0	5.115967	1.423927	8.85531	-0.016779	0.016269	-0.011976	-0.627441	0.007324	-0.340576
252.0	5.101008	1.426018	8.824578	-0.009514	0.013257	-0.011703	-0.625732	0.013916	-0.343018
253.0	5.09962	1.425668	8.825437	-0.012379	0.014292	-0.01245	-0.625244	0.005127	-0.347412
254.0	5.084732	1.427917	8.794641	-0.010946	0.013775	-0.012075	-0.63208	0.009521	-0.347412
255.0	5.114806	1.440141	8.820815	-0.011676	0.012803	-0.010252	-0.625488	0.011719	-0.338379
256.0	5.082122	1.42725	8.796257	-0.009211	0.011987	-0.016495	-0.625732	0.013916	-0.345215
257.0	5.09428	1.424299	8.828741	-0.013109	0.01332	-0.010625	-0.63208	0.013916	-0.343018
258.0	5.093054	1.423898	8.829513	-0.007377	0.011251	-0.009127	-0.62793	0.013916	-0.34082
259.0	5.094906	1.41159	8.8091	-0.00997	0.00855	-0.010654	-0.62793	0.013916	-0.345215
260.0	5.111791	1.426679	8.803414	-0.009939	0.011016	-0.01467	-0.629639	0.007324	-0.347412
261.0	5.089809	1.423457	8.831456	-0.006342	0.010956	-0.015741	-0.627686	0.011719	-0.345215
262.0	5.093146	1.44161	8.794078	-0.007073	0.009982	-0.01392	-0.631836	0.007324	-0.347412
263.0	5.090293	1.411811	8.811731	-0.005081	0.013752	-0.016184	-0.629883	0.009521	-0.345215
264.0	5.124558	1.442772	8.799969	-0.008646	0.016278	-0.019126	-0.627686	0.011719	-0.340576
265.0	5.105063	1.427504	8.807184	-0.008778	0.014235	-0.013511	-0.62793	0.013916	-0.343018
266.0	5.082838	1.424442	8.835311	-0.003544	0.012814	-0.017404	-0.627686	0.009521	-0.352051
267.0	5.084241	1.413095	8.815018	-0.002182	0.015187	-0.019445	-0.62793	0.013916	-0.345215
268.0	5.082774	1.414063	8.815709	0.00159	0.011817	-0.019697	-0.62793	0.013916	-0.352051
269.0	5.102199	1.418366	8.789016	-0.002708	0.013367	-0.020819	-0.629639	0.007324	-0.340576
270.0	5.095014	1.443365	8.831736	-0.000369	0.010514	-0.021446	-0.63208	0.013916	-0.347656
271.0	5.099526	1.420305	8.790255	-0.001274	0.012851	-0.020442	-0.625488	0.009521	-0.343018
272.0	5.126629	1.44587	8.837325	-0.001305	0.010385	-0.016428	-0.629883	0.009521	-0.347412
273.0	5.092379	1.403923	8.829523	-0.002076	0.014767	-0.021036	-0.629639	0.007324	-0.345215
274.0	5.095369	1.422892	8.792247	-0.001169	0.01243	-0.022037	-0.63208	0.009521	-0.338379
275.0	5.080813	1.426756	8.761008	0.004738	0.007055	-0.019719	-0.629883	0.009521	-0.338379
276.0	5.090248	1.437671	8.814102	0.0061	0.00943	-0.021758	-0.625488	0.011719	-0.345215
277.0	5.090593	1.397308	8.810351	0.005679	0.007187	-0.024731	-0.625244	0.007324	-0.338379
278.0	5.109028	1.444676	8.787376	0.009278	0.007133	-0.025798	-0.62793	0.016113	-0.343018
279.0	5.087146	1.443304	8.814973	0.007638	0.008494	-0.022976	-0.627686	0.011719	-0.340576
280.0	5.100917	1.4726	8.830082	0.008267	0.009894	-0.023195	-0.627686	0.009521	-0.349854
281.0	5.119221	1.447744	8.820016	0.006383	0.005697	-0.022532	-0.629883	0.009521	-0.336182
282.0	5.098929	1.476192	8.83063	0.00764	0.008496	-0.022972	-0.629883	0.009521	-0.343018
283.0	5.099477	1.43582	8.826812	0.004324	0.004813	-0.022684	-0.627686	0.009521	-0.343018
284.0	5.119449	1.440801	8.799744	0.00558	0.007612	-0.023124	-0.63208	0.009521	-0.340576
285.0	5.094761	1.451115	8.848312	0.005758	0.0043	-0.022306	-0.625244	0.007324	-0.342773
286.0	5.083504	1.443282	8.795791	0.005476	0.008036	-0.021525	-0.629883	0.009521	-0.336182
287.0	5.082531	1.444817	8.796101	0.003521	0.006728	-0.023276	-0.63208	0.011719	-0.340576
288.0	5.112856	1.459162	8.821827	0.00485	0.006638	-0.021302	-0.631836	0.007324	-0.342773
289.0	5.080792	1.447793	8.796616	0.004223	0.005238	-0.02108	-0.629883	0.009521	-0.338379
290.0	5.132063	1.465532	8.794983	0.006179	0.006548	-0.019327	-0.627441	0.007324	-0.342773
291.0	5.096884	1.466111	8.790878	0.000657	0.007755	-0.024023	-0.623291	0.009521	-0.345215
292.0	5.095805	1.467434	8.791282	0.002612	0.009065	-0.02227	-0.63208	0.013916	-0.343018
293.0	5.10806	1.466287	8.823424	0.002719	0.008643	-0.023865	-0.625244	0.007324	-0.340576
294.0	5.110076	1.45551	8.802771	0.001148	0.007112	-0.018634	-0.627686	0.009521	-0.340576
295.0	5.092759	1.471093	8.792436	-0.000285	0.007624	-0.019009	-0.638428	0.007324	-0.347412
296.0	5.088638	1.48394	8.813957	-0.003959	0.010562	-0.020357	-0.63208	0.011719	-0.343018
297.0	5.109975	1.445973	8.783152	-0.001931	0.008983	-0.016191	-0.631836	0.007324	-0.340576
298.0	5.089589	1.473061	8.793942	-0.00605	0.007206	-0.016502	-0.634277	0.011719	-0.340576
299.0	5.104873	1.458789	8.805247	-0.007038	0.012432	-0.017914	-0.625244	0.005127	-0.342773
300.0	5.082796	1.455631	8.833186	-0.006856	0.009119	-0.017097	-0.629883	0.011719	-0.336182
301.0	5.099583	1.47137	8.82748	-0.005529	0.00903	-0.015124	-0.629883	0.009521	-0.340576
302.0	5.088225	1.462116	8.775289	-0.008289	0.009632	-0.017471	-0.631836	0.007324	-0.347412
303.0	5.084052	1.474437	8.796914	-0.004795	0.01001	-0.016937	-0.625244	0.007324	-0.338379
304.0	5.117241	1.475625	8.801929	-0.007587	0.008142	-0.015278	-0.631836	0.007324	-0.342773
305.0	5.098249	1.460399	8.808817	-0.003758	0.013656	-0.014183	-0.629639	0.007324	-0.342773
306.0	5.117991	1.464219	8.782146	-0.006044	0.007209	-0.016496	-0.62793	0.013916	-0.34082
307.0	5.100458	1.479036	8.772042	-0.007143	0.012857	-0.01631	-0.631592	0.00293	-0.349609
308.0	5.094763	1.461194	8.810702	-0.006959	0.009544	-0.015494	-0.627441	0.00293	-0.342773
309.0	5.117583	1.452826	8.763046	-0.007767	0.011456	-0.016089	-0.627441	0.005127	-0.349609
310.0	5.092363	1.461484	8.812041	-0.007767	0.011457	-0.016088	-0.627441	0.007324	-0.347412
311.0	5.109094	1.477012	8.806428	-0.010966	0.007343	-0.017403	-0.627686	0.009521	-0.340576
312.0	5.07081	1.488117	8.823522	-0.005633	0.009456	-0.013519	-0.625244	0.007324	-0.342773
313.0	5.106929	1.477084	8.807672	-0.010741	0.012901	-0.015242	-0.627441	0.007324	-0.345215
314.0	5.125318	1.450522	8.798015	-0.006256	0.008055	-0.013299	-0.625244	0.007324	-0.340576
315.0	5.086984	1.461651	8.815119	-0.008389	0.010057	-0.015865	-0.634033	0.007324	-0.345215
316.0	5.103662	1.477234	8.80954	-0.008389	0.010058	-0.015864	-0.625244	0.005127	-0.347412
317.0	5.089234	1.479855	8.77842	-0.008388	0.010058	-0.015863	-0.63208	0.009521	-0.343018
318.0	5.088147	1.479794	8.779061	-0.010555	0.009588	-0.014425	-0.629883	0.009521	-0.340576
319.0	5.10346	1.464911	8.790483	-0.013531	0.01103	-0.013581	-0.625488	0.009521	-0.340576
320.0	5.118641	1.450051	8.801979	-0.009415	0.012814	-0.013263	-0.629639	0.007324	-0.342773
321.0	5.100908	1.464297	8.792067	-0.012906	0.012432	-0.013797	-0.627686	0.009521	-0.338379
322.0	5.113031	1.461241	8.82459	-0.014154	0.009629	-0.013361	-0.629639	0.005127	-0.342773
323.0	5.099921	1.49356	8.776653	-0.009304	0.012395	-0.014855	-0.623047	0.007324	-0.345215
324.0	5.113653	1.448564	8.805123	-0.014558	0.013784	-0.010979	-0.634033	0.005127	-0.340576
325.0	5.095896	1.462335	8.795299	-0.016505	0.012472	-0.012733	-0.629883	0.009521	-0.343018
326.0	5.078019	1.476217	8.785525	-0.013198	0.01617	-0.013006	-0.625244	0.007324	-0.340576
327.0	5.091618	1.431083	8.814079	-0.014335	0.012946	-0.014167	-0.629639	0.005127	-0.340576
328.0	5.108066	1.446289	8.80874	-0.009411	0.012819	-0.013253	-0.63208	0.013916	-0.343018
329.0	5.072518	1.445101	8.804981	-0.010732	0.01291	-0.015224	-0.629883	0.009521	-0.340576
330.0	5.105498	1.446357	8.810217	-0.004554	0.009193	-0.020099	-0.634033	0.005127	-0.342773
331.0	5.068201	1.487763	8.81048	-0.008452	0.012964	-0.018252	-0.627441	0.005127	-0.345215
332.0	5.120666	1.46244	8.805489	-0.009187	0.011981	-0.01644	-0.625488	0.011719	-0.345215
333.0	5.102927	1.476948	8.795523	-0.009298	0.012401	-0.014844	-0.629639	0.005127	-0.345215
334.0	5.062867	1.457627	8.829658	-0.01073	0.01291	-0.015219	-0.63208	0.011719	-0.343018
335.0	5.103393	1.464628	8.776115	-0.012275	0.013839	-0.013999	-0.627441	0.005127	-0.338379
336.0	5.077749	1.472821	8.825239	-0.007937	0.01479	-0.016867	-0.634033	0.007324	-0.335938
337.0	5.109137	1.443913	8.847533	-0.00856	0.013387	-0.01665	-0.629395	0.000732	-0.340332
338.0	5.078217	1.461142	8.805716	-0.006939	0.009563	-0.015466	-0.63623	0.009521	-0.345215
339.0	5.111275	1.462236	8.810978	-0.011238	0.01109	-0.016595	-0.629883	0.009521	-0.340576
340.0	5.093568	1.476645	8.800998	-0.009294	0.012403	-0.014837	-0.627441	0.007324	-0.340576
341.0	5.104255	1.443912	8.850351	-0.008483	0.010491	-0.014245	-0.627441	0.005127	-0.342773
342.0	5.105616	1.504173	8.817378	-0.007237	0.013299	-0.014673	-0.629395	0.00293	-0.335938
343.0	5.106174	1.46212	8.813954	-0.009406	0.012823	-0.013239	-0.629883	0.009521	-0.338379
344.0	5.087016	1.446384	8.820897	-0.010102	0.014317	-0.015424	-0.627686	0.009521	-0.345215
345.0	5.090363	1.464591	8.783685	-0.006237	0.008072	-0.013275	-0.634033	0.005127	-0.344971
346.0	5.105693	1.45016	8.795055	-0.010497	0.012078	-0.018398	-0.627686	0.009521	-0.343018
347.0	5.084788	1.476809	8.806046	-0.003445	0.009954	-0.01492	-0.627686	0.009521	-0.336182
348.0	5.116522	1.448154	8.828134	-0.00763	0.011062	-0.017643	-0.631836	0.005127	-0.340576
349.0	5.119829	1.466549	8.79093	-0.007743	0.01148	-0.016047	-0.629639	0.007324	-0.345215
350.0	5.046876	1.476131	8.803466	-0.010837	0.013332	-0.01361	-0.63208	0.009521	-0.340576
351.0	5.082964	1.465143	8.787877	-0.010722	0.012915	-0.015204	-0.627441	0.005127	-0.349609
352.0	5.111086	1.447857	8.831331	-0.011025	0.01665	-0.014411	-0.63208	0.009521	-0.338379
353.0	5.093239	1.462078	8.821442	-0.011964	0.010108	-0.014775	-0.627441	0.007324	-0.338379
354.0	5.095104	1.449905	8.801236	-0.012342	0.016742	-0.016379	-0.629883	0.009521	-0.340576
355.0	5.124585	1.462771	8.827833	-0.00859	0.010914	-0.012639	-0.629395	0.00293	-0.344971
356.0	5.076027	1.463991	8.792078	-0.011456	0.01193	-0.013391	-0.627686	0.009521	-0.345215
357.0	5.10895	1.464921	8.797528	-0.008083	0.012736	-0.011255	-0.625488	0.009521	-0.343018
358.0	5.106386	1.4345	8.815124	-0.012887	0.012439	-0.013766	-0.629639	0.007324	-0.347412
359.0	5.103102	1.476335	8.820158	-0.006534	0.011812	-0.012471	-0.625488	0.011719	-0.343018
360.0	5.103985	1.434202	8.816562	-0.010642	0.010019	-0.012799	-0.63208	0.011719	-0.343018
361.0	5.083008	1.460332	8.82763	-0.010716	0.01292	-0.015194	-0.627441	0.007324	-0.342773
362.0	5.084975	1.448524	8.807319	-0.005679	0.012386	-0.015869	-0.627686	0.009521	-0.340576
363.0	5.101479	1.464379	8.801953	-0.008354	0.010084	-0.015821	-0.631836	0.007324	-0.342773
364.0	5.082664	1.448833	8.808602	-0.006921	0.009577	-0.015444	-0.627441	0.00293	-0.347412
365.0	5.084856	1.437173	8.788146	-0.0063	0.010983	-0.015655	-0.625488	0.009521	-0.340576
366.0	5.111257	1.46232	8.835631	-0.00692	0.009578	-0.015442	-0.629883	0.013916	-0.343018
367.0	5.097043	1.46529	8.804371	-0.003317	0.009553	-0.016494	-0.629639	0.005127	-0.338379
368.0	5.128819	1.436509	8.826513	-0.011334	0.011515	-0.014977	-0.630127	0.015869	-0.34082
369.0	5.078139	1.47995	8.794999	-0.005677	0.01239	-0.015862	-0.625244	0.007324	-0.338379
370.0	5.093492	1.465701	8.806357	-0.006223	0.008082	-0.013257	-0.627441	0.007324	-0.347412
371.0	5.07806	1.438328	8.791885	-0.007612	0.011076	-0.01762	-0.629883	0.009521	-0.345215
372.0	5.087849	1.477921	8.8287	-0.006414	0.011401	-0.014054	-0.627686	0.011719	-0.349854
373.0	5.08889	1.436038	8.824985	-0.007537	0.008175	-0.015226	-0.627686	0.009521	-0.338379
374.0	5.106787	1.482176	8.802769	-0.004745	0.010064	-0.016864	-0.627441	0.005127	-0.335938
375.0	5.1078	1.44057	8.799033	-0.003548	0.010389	-0.013298	-0.625488	0.009521	-0.340576
376.0	5.069077	1.451602	8.815972	-0.004124	0.011471	-0.017073	-0.627441	0.005127	-0.338379
377.0	5.106679	1.471516	8.783507	-0.006915	0.009581	-0.015434	-0.63208	0.011719	-0.336182
378.0	5.097675	1.465088	8.843016	-0.009085	0.009097	-0.014006	-0.627441	0.005127	-0.347412
379.0	5.096634	1.465131	8.843609	-0.006914	0.009582	-0.015433	-0.629639	0.005127	-0.342773
380.0	5.085794	1.455966	8.791325	-0.009779	0.010595	-0.016186	-0.629883	0.011719	-0.343018
381.0	5.094329	1.465345	8.844902	-0.006174	0.010574	-0.017235	-0.629639	0.007324	-0.345215
382.0	5.080056	1.468098	8.813716	-0.009778	0.010595	-0.016184	-0.627686	0.011719	-0.340576
383.0	5.098643	1.441895	8.804125	-0.008419	0.012994	-0.018196	-0.629883	0.011719	-0.345215
384.0	5.093848	1.453874	8.825992	-0.007224	0.013317	-0.01463	-0.631836	0.007324	-0.342773
385.0	5.076051	1.468478	8.81596	-0.007604	0.011082	-0.017608	-0.627441	0.007324	-0.342773
386.0	5.095842	1.472418	8.789648	-0.010708	0.012923	-0.015173	-0.625244	0.007324	-0.340576
387.0	5.112117	1.488035	8.784517	-0.008775	0.014238	-0.01341	-0.627441	0.005127	-0.342773
388.0	5.072026	1.468256	8.818313	-0.009893	0.011011	-0.014585	-0.629883	0.009521	-0.345215
389.0	5.088371	1.483932	8.813132	-0.009967	0.013917	-0.016973	-0.625488	0.009521	-0.345215
390.0	5.093804	1.460207	8.771792	-0.010705	0.012924	-0.015169	-0.627686	0.009521	-0.343018
391.0	5.071376	1.455964	8.79965	-0.012877	0.012437	-0.013743	-0.634033	0.005127	-0.340576
392.0	5.100954	1.469076	8.826226	-0.005352	0.00867	-0.016638	-0.634033	0.005127	-0.342773
393.0	5.099767	1.469178	8.826894	-0.010704	0.012925	-0.015166	-0.625244	0.007324	-0.340576
394.0	5.101948	1.457415	8.806527	-0.004973	0.010905	-0.013657	-0.627441	0.00293	-0.344971
395.0	5.114995	1.485055	8.822347	-0.009889	0.011014	-0.01458	-0.625244	0.00293	-0.342773
396.0	5.115994	1.442865	8.818735	-0.010824	0.01334	-0.01357	-0.625244	0.005127	-0.349609
397.0	5.081637	1.471492	8.798023	-0.010702	0.012927	-0.015162	-0.627441	0.005127	-0.347412
398.0	5.114459	1.472735	8.803657	-0.009269	0.012422	-0.014784	-0.629883	0.009521	-0.343018
399.0	5.095407	1.456685	8.810433	-0.013687	0.01435	-0.014321	-0.625244	0.007324	-0.340576
400.0	5.093914	1.456302	8.81136	-0.010325	0.015162	-0.01218	-0.634277	0.009521	-0.343018
401.0	5.110071	1.471662	8.806385	-0.013807	0.014764	-0.012726	-0.63208	0.009521	-0.343018
402.0	5.094388	1.443745	8.792127	-0.011391	0.01443	-0.017335	-0.623047	0.005127	-0.349609
403.0	5.094131	1.473633	8.776321	-0.012992	0.012852	-0.01214	-0.634033	0.007324	-0.340576
404.0	5.087966	1.454952	8.815019	-0.008843	0.017154	-0.015775	-0.629639	0.005127	-0.347412
405.0	5.08627	1.454935	8.816	-0.01077	0.015839	-0.017537	-0.627441	0.007324	-0.342773
406.0	5.089342	1.473249	8.779163	-0.0102	0.014752	-0.013766	-0.629639	0.005127	-0.342773
407.0	5.096215	1.452022	8.849684	-0.008767	0.014248	-0.013388	-0.625244	0.007324	-0.345215
408.0	5.085238	1.443016	8.797542	-0.007658	0.014009	-0.019966	-0.627686	0.009521	-0.345215
409.0	5.097935	1.470829	8.813555	-0.005902	0.01324	-0.012631	-0.625244	0.007324	-0.342773
410.0	5.100159	1.459242	8.793172	-0.007582	0.011101	-0.017582	-0.63208	0.013916	-0.345215
411.0	5.095201	1.471137	8.815084	-0.010643	0.01543	-0.019124	-0.629395	0.00293	-0.342773
412.0	5.113422	1.445121	8.805789	-0.007481	0.019564	-0.017768	-0.627441	0.007324	-0.347412
413.0	5.093667	1.429413	8.812862	-0.011159	0.022485	-0.019104	-0.629639	0.007324	-0.347412
414.0	5.095862	1.448106	8.776509	-0.007133	0.027205	-0.021138	-0.627441	0.007324	-0.345215
415.0	5.107301	1.476253	8.793203	-0.004267	0.026199	-0.02038	-0.629883	0.011719	-0.340576
416.0	5.094001	1.437621	8.758343	-0.006955	0.029294	-0.026699	-0.627441	0.007324	-0.349609
417.0	5.06767	1.477252	8.791019	0.016137	0.023328	-0.026215	-0.627441	0.00293	-0.347412
418.0	5.056132	1.44232	8.867407	0.004034	0.018039	-0.018708	-0.629639	0.005127	-0.347412
419.0	5.033157	1.336953	8.811312	0.049568	-0.004722	-0.029074	-0.627686	0.011719	-0.343018
420.0	5.05259	1.464571	8.886764	0.074404	-0.026283	-0.026433	-0.629639	0.007324	-0.347412
421.0	5.102517	1.397451	8.821184	0.092379	-0.04018	-0.02507	-0.627686	0.009521	-0.340576
422.0	5.118339	1.478269	8.836434	0.126145	-0.066531	-0.035024	-0.631836	0.007324	-0.342773
423.0	5.165086	1.468588	8.793949	0.111872	-0.070376	-0.040163	-0.631592	0.00293	-0.340576
424.0	5.118178	1.464454	8.78997	0.138753	-0.053978	-0.04744	-0.629639	0.007324	-0.340576
425.0	5.146867	1.545928	8.836279	0.124479	-0.057836	-0.052566	-0.631592	0.000732	-0.344971
426.0	5.186276	1.516539	8.720231	0.137745	-0.054677	-0.0525	-0.629639	0.005127	-0.340576
427.0	5.15541	1.604934	8.809811	0.131289	-0.042296	-0.054793	-0.627197	0.000732	-0.335938
428.0	5.119527	1.59898	8.838841	0.121467	-0.038613	-0.048878	-0.634033	0.005127	-0.33374
429.0	5.150569	1.591686	8.765783	0.113251	-0.044725	-0.045528	-0.629395	-0.001465	-0.333496
430.0	5.076307	1.564872	8.82826	0.119947	-0.037664	-0.047603	-0.629639	0.005127	-0.342773
431.0	5.143953	1.546543	8.739802	0.102299	-0.021569	-0.046053	-0.629395	-0.001465	-0.340332
432.0	5.158573	1.586421	8.752059	0.108817	-0.01224	-0.060665	-0.631592	-0.001465	-0.335938
433.0	5.148569	1.664746	8.795631	0.103933	-0.002648	-0.050119	-0.627197	0.000732	-0.338135
434.0	5.155807	1.682137	8.734811	0.101073	-0.00165	-0.050859	-0.631348	-0.005859	-0.340332
435.0	5.127158	1.712904	8.802073	0.082746	-0.003269	-0.038491	-0.633301	-0.010254	-0.333496
436.0	5.161028	1.647436	8.707112	0.080979	0.000966	-0.038093	-0.631348	-0.003662	-0.340332
437.0	5.09797	1.675527	8.769958	0.084396	0.000757	-0.047642	-0.631592	-0.001465	-0.342773
438.0	5.128876	1.728197	8.776885	0.067228	-0.006503	-0.035448	-0.628906	-0.010254	-0.331055
439.0	5.1015	1.679331	8.746042	0.059097	-0.015523	-0.029698	-0.626953	-0.005859	-0.335693
440.0	5.11081	1.798437	8.765767	0.067126	-0.019867	-0.027156	-0.628906	-0.012451	-0.337891
441.0	5.139741	1.753936	8.712078	0.041695	-0.025472	-0.022034	-0.635742	-0.005859	-0.335693
442.0	5.106821	1.726227	8.722735	0.032503	-0.025743	-0.010015	-0.637939	-0.005859	-0.333496
443.0	5.106299	1.770693	8.72441	0.012856	-0.030854	-0.007347	-0.637939	-0.005859	-0.338135
444.0	5.057262	1.723446	8.74141	-0.006504	-0.044613	0.002561	-0.631592	-0.001465	-0.338135
445.0	5.007688	1.746738	8.743985	-0.01011	-0.064409	0.006603	-0.628906	-0.010254	-0.333496
446.0	5.042524	1.770921	8.786346	-0.0357	-0.110917	-0.002459	-0.631592	0.000732	-0.335938
447.0	5.093305	1.697443	8.629601	-0.052342	-0.090548	0.011836	-0.629395	-0.001465	-0.333496
448.0	4.986503	1.680396	8.841656	-0.048681	-0.104324	0.017524	-0.633545	-0.003662	-0.335693
449.0	4.943272	1.730599	8.824615	-0.027477	-0.129437	0.005236	-0.635742	-0.001465	-0.331299
450.0	4.891825	1.863977	8.984513	-0.049491	-0.15641	0.019607	-0.633789	0.000732	-0.331299
451.0	4.886448	1.57013	9.138638	-0.102648	-0.213088	0.064442	-0.637939	-0.005859	-0.32666
452.0	4.802943	1.624478	9.271195	-0.071942	-0.322739	0.057009	-0.635986	0.000732	-0.329102
453.0	4.737144	1.790431	9.59116	-0.082361	-0.459638	0.065894	-0.642334	-0.001709	-0.322266
454.0	4.677446	1.51124	9.618397	-0.100469	-0.646372	0.073794	-0.642334	-0.001709	-0.319824
455.0	3.714124	0.012274	10.235882	-0.099429	-0.889696	0.118131	-0.644531	-0.003906	-0.322021
456.0	1.70857	1.076339	10.226785	0.476665	-1.415676	-0.001131	-0.648926	-0.003906	-0.30835
457.0	4.124166	2.933382	11.313215	0.297913	-1.921807	0.037205	-0.661865	-0.003906	-0.294678
458.0	4.078452	2.768099	9.879874	0.169325	-2.378945	0.323666	-0.675049	-0.001953	-0.276611
459.0	4.353967	3.095083	10.485137	0.27408	-2.735327	0.455018	-0.681641	-0.001953	-0.267334
460.0	5.688735	4.004637	10.493689	0.227795	-3.061228	0.572476	-0.692627	0.002197	-0.244629
461.0	6.3383	4.927587	10.790359	0.154464	-3.247037	0.843986	-0.699463	0.008789	-0.226563
462.0	7.976156	5.385849	11.573786	-0.15369	-3.311876	1.025562	-0.712891	0.015137	-0.208496
463.0	6.773054	6.436483	13.089831	-0.060331	-2.857874	0.854355	-0.715332	0.021729	-0.197266
464.0	2.826717	7.447766	14.083668	-0.108414	-2.26323	0.470144	-0.721924	0.023682	-0.183594
465.0	-0.166427	9.090564	13.061981	0.1784	-1.693038	-0.236752	-0.723877	0.01709	-0.178955
466.0	0.901438	12.42226	16.18488	-0.083246	-1.180845	-1.037149	-0.723633	0.012695	-0.178711
467.0	0.08498	11.197897	16.466679	-1.555281	-0.315509	-1.513147	-0.727539	0.001953	-0.183105
468.0	-4.052373	8.563188	12.949311	-1.564835	0.213341	-1.815688	-0.722656	-0.013428	-0.200928
469.0	-4.572868	6.282656	12.521098	-1.895548	0.455243	-1.894634	-0.709229	-0.017578	-0.219238
470.0	-3.84727	3.31543	12.869768	-2.065764	0.84876	-1.82232	-0.704346	-0.02832	-0.246338
471.0	-4.380631	0.82481	13.542815	-1.720146	1.030574	-1.794083	-0.688721	-0.039063	-0.266602
472.0	-4.163797	-0.47821	12.851062	-0.78906	1.072441	-1.810576	-0.670654	-0.049805	-0.291504
473.0	-3.182742	0.450389	14.189254	-0.317726	1.256395	-1.655679	-0.641846	-0.062744	-0.325439
474.0	-2.394233	0.336186	14.262919	-0.488256	1.598311	-1.405773	-0.611084	-0.068848	-0.357422
475.0	-1.904284	0.449953	14.235623	-0.323583	1.84173	-1.218223	-0.573486	-0.077393	-0.38916
476.0	-1.779406	1.256496	14.096856	-0.351729	2.082802	-1.075798	-0.519043	-0.076904	-0.414307
477.0	-1.786881	1.336191	13.224128	-0.491239	2.212966	-0.956802	-0.462402	-0.076416	-0.44165
478.0	-1.424535	1.683218	12.833437	-0.403085	2.182693	-0.903853	-0.399902	-0.060791	-0.453369
479.0	-0.352985	2.345062	12.975307	-0.331358	2.092543	-0.87304	-0.341553	-0.047363	-0.449219
480.0	0.988885	2.78982	13.39776	-0.331564	2.017127	-0.891461	-0.276855	-0.031738	-0.451904
481.0	2.460454	3.204941	13.660021	-0.319076	1.967041	-0.938232	-0.210205	-0.011719	-0.434082
482.0	3.902444	3.430744	13.946119	-0.349618	1.943022	-0.992852	-0.148438	0.023682	-0.407471
483.0	5.340327	3.41467	13.92972	-0.379615	1.973644	-1.062417	-0.091064	0.058838	-0.371826
484.0	6.477202	3.169143	13.725306	-0.401867	2.010836	-1.123555	-0.03833	0.098389	-0.32251
485.0	7.757935	2.889943	13.393893	-0.290211	2.051646	-1.197961	0.005615	0.139893	-0.255127
486.0	8.961039	3.046185	13.21206	-0.144878	2.134998	-1.273049	0.027588	0.183594	-0.178467
487.0	10.108195	3.317045	13.137442	-0.18815	2.274239	-1.307769	0.023682	0.222412	-0.097168
488.0	10.957134	3.223874	12.681893	-0.351082	2.462363	-1.313207	0.004883	0.254883	-0.022705
489.0	12.107539	2.802696	12.187973	-0.43612	2.650733	-1.296588	-0.046143	0.27417	0.04541
490.0	12.754889	1.96357	11.219558	-0.61975	2.927346	-1.285829	-0.102783	0.273682	0.08667
491.0	13.074199	1.006679	9.510377	-0.66167	3.065284	-1.202762	-0.161621	0.268799	0.123291
492.0	13.353045	0.856589	7.388629	-0.601647	3.110238	-1.075535	-0.219971	0.259766	0.12793
493.0	13.077355	1.007005	4.664364	-0.779076	3.065544	-0.914397	-0.275879	0.239746	0.14209
494.0	12.880509	0.790634	1.812247	-1.044864	2.770353	-0.526289	-0.325195	0.221924	0.128906
495.0	13.040628	-0.7079	-2.062745	-1.257309	2.537288	-0.182423	-0.361572	0.204346	0.11792
496.0	12.435987	-2.402582	-4.626006	-0.589321	2.060011	-0.017168	-0.389404	0.195313	0.104492
497.0	13.915938	-1.515519	-5.205997	0.372389	1.357962	-0.020687	-0.415039	0.182129	0.0979
498.0	15.864928	0.918241	-4.256109	0.718275	0.915862	0.144171	-0.436523	0.175537	0.082031
499.0	16.391783	1.831455	-4.042812	0.535703	0.667572	0.409007	-0.458252	0.173096	0.079834
500.0	15.808218	1.853619	-3.660388	0.552197	0.350849	0.464161	-0.46875	0.166504	0.073242
501.0	15.829651	2.660991	-2.956652	0.641077	0.039638	0.373048	-0.486572	0.170898	0.077637
502.0	12.365601	3.709841	-0.090635	0.08844	0.220631	0.337922	-0.495117	0.170654	0.077637
503.0	6.64143	5.145299	-15.536615	-2.766425	-1.904252	0.58607	-0.514893	0.172852	0.100342
504.0	-9.09586	-0.86208	-11.212881	0.724954	-1.980154	1.061275	-0.52002	0.187988	0.127441
505.0	5.327198	6.34541	39.732732	5.398333	-5.171882	0.568926	-0.53125	0.194336	0.147949
506.0	10.203773	18.709615	5.134328	-1.897878	-2.260791	-1.083805	-0.543945	0.187744	0.16626
507.0	1.124105	1.443257	5.800485	-2.92746	-2.947228	1.200174	-0.552979	0.196289	0.191162
508.0	12.111697	-5.66774	9.97374	0.961032	-4.30774	0.22755	-0.557617	0.202637	0.213867
509.0	16.314393	1.316388	18.093385	1.164994	-2.88253	-0.618396	-0.568604	0.202637	0.234375
510.0	11.826908	-1.195519	12.951912	-0.889353	-2.166409	0.682047	-0.568848	0.207031	0.252441
511.0	9.748467	-3.212513	11.255337	0.54129	-2.178821	0.402595	-0.575684	0.213379	0.266113
512.0	8.318939	3.072412	11.699543	1.311317	-2.060659	-0.125731	-0.577881	0.217773	0.281982
513.0	5.66045	2.283629	9.467221	0.192933	-1.80311	0.224066	-0.584473	0.217529	0.297852
514.0	10.408211	1.679686	10.520621	0.892383	-2.104216	0.165694	-0.578369	0.226318	0.313721
515.0	18.768913	12.544015	18.60397	1.16226	-0.863649	-0.347701	-0.588867	0.219727	0.313721
516.0	3.041733	13.451343	7.964928	-4.144798	0.439013	0.387483	-0.582031	0.213135	0.322998
517.0	6.59616	-0.641193	11.721586	-4.308309	-0.717661	1.435153	-0.582275	0.217529	0.325195
518.0	7.070041	-6.420238	8.736728	-2.290765	-0.216222	0.910755	-0.584229	0.213135	0.334473
519.0	7.16417	0.360735	8.937319	0.308319	0.03286	0.063958	-0.58667	0.217529	0.334473
520.0	5.057708	3.262643	11.607926	-0.509783	-0.093682	0.198572	-0.584473	0.217529	0.338867
521.0	5.574499	-0.330545	8.153873	-0.758827	-0.112724	0.372206	-0.580078	0.217529	0.332031
522.0	4.85377	0.191046	9.263431	0.233633	-0.088116	0.09738	-0.586914	0.224121	0.341064
523.0	4.774908	2.020564	9.961892	0.10412	-0.251692	0.059683	-0.582275	0.217529	0.343506
524.0	4.900234	1.283112	9.396439	-0.097096	-0.393258	0.153066	-0.584473	0.219727	0.338867
525.0	4.951523	0.778142	8.973479	0.00369	-0.415318	0.139701	-0.580322	0.219727	0.345703
526.0	5.043891	1.022278	9.078038	0.117258	-0.419527	0.05553	-0.575928	0.221924	0.343506
527.0	5.097543	1.127194	8.793611	0.03022	-0.48403	-0.002252	-0.571533	0.221924	0.3479
528.0	5.693833	1.028311	8.624897	0.108551	-0.291252	-0.01577	-0.578125	0.221924	0.352539
529.0	5.445764	1.164049	8.717451	0.127684	-0.235763	-0.063798	-0.578125	0.224121	0.352539
530.0	5.158985	1.365677	9.150657	0.015696	-0.178593	0.035013	-0.578125	0.224121	0.3479
531.0	5.306637	0.198946	8.212723	0.033725	-0.139672	-0.164046	-0.578125	0.221924	0.352539
532.0	5.247018	1.490969	9.09639	0.243535	-0.058692	-0.229726	-0.575928	0.219727	0.350342
533.0	5.303148	1.493254	8.771	0.101515	-0.067699	-0.176124	-0.580078	0.215332	0.35498
534.0	5.174316	1.429396	8.838384	0.122768	-0.044493	-0.148215	-0.579834	0.213135	0.350342
535.0	5.084474	1.278921	8.681685	0.139448	-0.025042	-0.192771	-0.58252	0.219727	0.357178
536.0	5.071623	1.68198	8.850408	0.204907	-0.004671	-0.186767	-0.577881	0.217529	0.359375
537.0	5.006167	1.73334	8.979259	0.088722	-0.033681	-0.104648	-0.579834	0.213135	0.352783
538.0	5.125284	1.373112	8.696634	0.082151	-0.05023	-0.068431	-0.586426	0.213135	0.350342
539.0	5.128622	1.783331	8.859974	0.113208	-0.043203	-0.006824	-0.575439	0.210938	0.357178
540.0	4.986021	2.248016	9.436021	-0.116069	-0.116529	0.281571	-0.573486	0.213135	0.357178
541.0	5.24023	0.227237	7.892512	-0.083688	-0.185573	0.201519	-0.571289	0.213135	0.361816
542.0	4.704948	-0.663579	8.290056	0.218674	-0.140842	-0.275127	-0.567383	0.224121	0.354736
543.0	5.148996	2.244378	9.374242	0.782543	0.012472	-0.377313	-0.576416	0.230713	0.354736
544.0	5.246738	1.963153	8.884119	0.181488	-0.192224	-0.153276	-0.576904	0.241455	0.354492
545.0	5.088945	1.019868	8.455752	0.37081	-0.154965	-0.196781	-0.583008	0.234863	0.356934
546.0	5.483486	2.500932	8.756519	0.454024	-0.15858	-0.158033	-0.587158	0.228271	0.359131
547.0	4.805489	2.412787	9.951213	0.058244	-0.304823	0.281123	-0.587158	0.230469	0.36377
548.0	5.468713	-1.358934	6.262712	0.492701	-0.277368	-0.368305	-0.586914	0.221924	0.361572
549.0	5.139671	4.440255	10.732144	0.888209	-0.09476	-0.275521	-0.582764	0.228271	0.36377
550.0	4.224202	0.776867	10.304966	-0.390242	-0.463347	0.26763	-0.587158	0.226074	0.368408
551.0	5.219043	0.159398	6.400679	1.143776	-0.316728	-0.252167	-0.580811	0.230469	0.370605
552.0	4.63484	4.675238	11.245102	0.630105	-0.510813	-0.057614	-0.582764	0.228271	0.370605
553.0	4.626132	1.80045	10.18617	-0.272759	-0.805736	0.579595	-0.576172	0.228516	0.372803
554.0	5.542331	0.109365	6.315977	0.596822	-1.038551	-0.046508	-0.576172	0.228516	0.377441
555.0	4.376706	2.982626	11.18138	0.735009	-0.935262	0.069119	-0.578369	0.228271	0.377441
556.0	5.246083	2.332884	8.758834	0.177127	-1.377537	0.227798	-0.572021	0.230469	0.384277
557.0	4.661146	0.682322	9.14249	0.348445	-1.459653	0.151997	-0.567627	0.23291	0.386475
558.0	4.504308	1.189327	9.216112	0.800398	-1.878895	-0.127509	-0.56543	0.230713	0.397949
559.0	5.057661	2.345435	9.40832	0.83545	-2.208038	-0.175798	-0.556641	0.230713	0.413818
560.0	4.945028	1.872884	9.340171	0.586906	-2.580328	-0.125605	-0.550049	0.226318	0.420898
561.0	5.334867	1.106245	8.97174	0.522601	-2.840317	-0.175034	-0.549561	0.219727	0.432373
562.0	4.827989	0.98376	9.053879	0.667434	-3.197505	-0.380401	-0.538818	0.219727	0.443604
563.0	5.132488	2.20415	8.525832	0.672623	-3.553306	-0.401069	-0.523438	0.217529	0.461914
564.0	4.6179	2.292917	8.829843	0.586717	-3.952713	-0.22681	-0.510254	0.217773	0.475586
565.0	4.779447	2.275352	8.925245	0.759383	-4.490207	0.003565	-0.497314	0.217773	0.500732
566.0	4.385861	2.012978	9.070009	1.130424	-4.970281	0.305845	-0.47998	0.219971	0.520996
567.0	4.181135	2.390461	8.984082	1.495218	-5.446	0.64188	-0.462646	0.222168	0.541504
568.0	4.904816	2.697498	8.518659	1.558321	-6.069816	0.965944	-0.440918	0.226563	0.564209
569.0	5.154628	4.036472	8.409685	1.73042	-6.481556	1.520538	-0.410889	0.237549	0.58667
570.0	4.163459	4.112498	6.907752	0.94423	-7.384605	2.28356	-0.376465	0.248779	0.61377
571.0	7.764625	4.704207	8.066859	1.028442	-9.094933	2.850204	-0.330811	0.251221	0.634277
572.0	8.696743	4.67351	10.214238	-0.524483	-8.95471	2.363092	-0.288818	0.240479	0.670898
573.0	22.248194	3.856383	8.488816	0.302314	-11.064	1.703303	-0.230225	0.247314	0.688965
574.0	31.699548	3.256993	6.505107	1.993573	-9.870382	0.949208	-0.184814	0.25415	0.697754
575.0	32.161754	6.014855	11.560212	3.333934	-8.215127	0.350712	-0.156738	0.262939	0.699951
576.0	35.690994	10.396638	14.03314	3.280929	-7.024023	0.175984	-0.144043	0.269531	0.690674
577.0	29.681175	9.545547	12.76347	4.038604	-5.976039	0.83157	-0.118652	0.285156	0.692627
578.0	24.979278	12.054769	24.447593	5.771826	-5.72183	1.259332	-0.115479	0.313477	0.676025
579.0	9.931775	13.04453	30.154109	5.393464	-5.394148	2.076112	-0.11377	0.32666	0.664307
580.0	9.379373	19.313561	32.216689	0.164135	-1.992271	2.152618	-0.128174	0.306885	0.67627
581.0	27.118455	8.705398	30.434059	-1.156841	0.235988	1.503511	-0.1604	0.293701	0.662842
582.0	6.770826	14.580803	24.545283	-0.944372	3.079844	0.47835	-0.207031	0.264893	0.665771
583.0	0.547333	8.986243	16.623469	-2.509922	3.467383	0.38091	-0.249512	0.240723	0.657227
584.0	-2.062975	4.094729	13.273743	-1.755655	3.509489	0.331627	-0.285645	0.21875	0.644043
585.0	-0.444487	3.906344	12.465644	-0.803774	3.235955	0.114909	-0.322021	0.203125	0.625977
586.0	-1.502018	4.524269	12.356486	-0.626851	3.472604	-0.138865	-0.356201	0.187744	0.612793
587.0	1.424607	4.80196	13.187145	-0.155016	3.592014	-0.37599	-0.392822	0.174561	0.597168
588.0	2.489458	6.381741	13.794384	-0.516203	4.175055	-0.689338	-0.431396	0.161133	0.574707
589.0	2.908175	4.663501	11.693922	-1.036773	4.718858	-0.929546	-0.460938	0.136963	0.550049
590.0	3.059409	3.522648	10.53754	-0.997085	5.07434	-1.176517	-0.494873	0.117188	0.513916
591.0	3.203127	2.516179	9.620416	-1.179615	5.356101	-1.354681	-0.524658	0.097412	0.487061
592.0	4.061555	0.889993	8.522185	-1.047996	5.486841	-1.447809	-0.556152	0.071289	0.451172
593.0	4.438949	0.646625	8.277951	-0.718291	5.561544	-1.511817	-0.579346	0.053711	0.406006
594.0	5.832081	0.494222	9.114739	-0.628708	5.560284	-1.403637	-0.606934	0.036133	0.365234
595.0	7.07613	-0.004631	9.260208	-0.703221	5.770323	-1.35751	-0.618896	0.014404	0.32251
596.0	8.315719	-0.817962	9.813398	-0.607687	5.964397	-1.280432	-0.62915	-0.005127	0.281738
597.0	9.730624	-0.884558	10.023759	-0.471148	6.232664	-1.346913	-0.638916	-0.0271	0.232178
598.0	10.713726	-0.209002	10.711993	-0.424271	6.426822	-1.235732	-0.64917	-0.042236	0.18457
599.0	11.256355	-0.093648	10.834156	-0.343591	6.622312	-1.128069	-0.655029	-0.05957	0.130371
600.0	11.950733	-0.258334	11.448311	-0.208548	6.650632	-0.93574	-0.647705	-0.076904	0.075928
601.0	13.248444	-0.581733	11.906224	0.119471	6.681688	-0.846787	-0.627197	-0.096191	0.021484
602.0	14.845708	0.089168	12.913348	0.572259	6.650795	-0.799493	-0.600586	-0.104736	-0.019287
603.0	17.527896	2.012688	13.748884	1.099041	6.596041	-0.847702	-0.571777	-0.115234	-0.060303
604.0	19.636689	4.699013	14.739917	1.274613	6.6784	-0.946165	-0.554199	-0.121582	-0.07373
605.0	22.199052	7.008313	15.274598	1.307134	6.639082	-1.103817	-0.525635	-0.125732	-0.094238
606.0	27.149269	9.750915	16.04359	1.537942	6.610439	-1.435418	-0.516846	-0.12793	-0.110107
607.0	33.490744	14.073853	16.588665	1.20562	6.886411	-1.913426	-0.496826	-0.136475	-0.137451
608.0	37.701913	16.408562	14.381734	-0.167642	7.465624	-2.33023	-0.481201	-0.142822	-0.164551
609.0	36.983589	13.39161	8.71767	-1.565039	7.817275	-2.586511	-0.461426	-0.144775	-0.194092
610.0	35.15039	6.480278	4.615367	-2.591867	7.648183	-2.67503	-0.441895	-0.146729	-0.230713
611.0	31.340495	0.868396	-3.137457	-2.236888	6.85562	-2.814956	-0.417725	-0.146484	-0.251221
612.0	31.69226	1.391195	-11.714921	-0.745029	5.293938	-2.889782	-0.397705	-0.159424	-0.266846
613.0	29.474313	1.942801	-14.797627	0.179279	5.349163	-3.224559	-0.373291	-0.167969	-0.284912
614.0	29.500081	2.552219	-17.084545	-1.044849	3.815188	-2.684705	-0.353516	-0.170166	-0.298584
615.0	33.42902	-8.48078	-22.153327	-1.855451	2.30843	-1.727688	-0.344971	-0.16333	-0.307861
616.0	33.00662	-12.525754	-30.624891	0.360968	0.960017	-1.07556	-0.338135	-0.169922	-0.307861
617.0	27.602271	-7.675814	-25.238153	2.321236	0.231966	-0.439353	-0.331299	-0.178711	-0.302979
618.0	23.198224	-1.11819	-11.42226	2.628733	-1.257428	0.109702	-0.333252	-0.185303	-0.302979
619.0	17.464564	10.851264	-7.418574	-2.178633	-1.386644	0.530154	-0.336182	-0.169922	-0.312256
620.0	-18.562552	-2.438428	-1.33379	-0.049565	-2.309939	1.428279	-0.349365	-0.16333	-0.310303
621.0	-4.102709	3.950917	28.199956	-2.231991	-5.393224	1.521368	-0.361084	-0.145996	-0.305908
622.0	16.311363	-2.996775	-5.005949	-2.996524	-5.073439	0.82059	-0.376953	-0.133057	-0.299316
623.0	24.158131	-10.698635	20.972982	1.881588	-6.245301	1.010245	-0.389648	-0.144043	-0.2854
624.0	25.9073	-1.662885	22.097303	1.344528	-5.074193	0.263014	-0.400391	-0.144287	-0.278564
625.0	17.637404	-3.00413	16.606261	0.67605	-4.164041	1.603112	-0.402832	-0.139893	-0.265137
626.0	14.653288	6.000975	11.592109	2.412726	-3.920511	0.318978	-0.40918	-0.144287	-0.262695
627.0	10.920013	13.947299	14.10303	1.090601	-3.209007	0.22329	-0.415527	-0.150879	-0.258057
628.0	12.182159	5.018169	10.639526	-0.332534	-3.794922	0.905215	-0.424316	-0.146484	-0.253418
629.0	25.876464	16.718473	18.474713	1.462607	-2.119503	0.239594	-0.430664	-0.148926	-0.251221
630.0	2.073818	14.245889	13.076348	-4.410354	-1.460251	0.805543	-0.431641	-0.126953	-0.253906
631.0	12.378143	1.389925	12.37279	-4.817869	-2.327694	2.578817	-0.439453	-0.103027	-0.249756
632.0	9.083306	-7.480129	8.772256	-3.832351	-0.627009	1.091221	-0.444336	-0.090088	-0.252197
633.0	8.623798	-0.784583	9.963274	-0.639742	0.102668	0.142852	-0.442139	-0.087646	-0.266113
634.0	5.308155	1.130442	10.940204	-1.262267	-0.149179	0.369237	-0.446777	-0.083496	-0.261475
635.0	4.587309	-0.126181	9.061111	-0.691616	-0.188313	0.325923	-0.442383	-0.083496	-0.25708
636.0	6.120036	0.228462	9.211682	-0.433982	-0.349379	0.198393	-0.442627	-0.076904	-0.259277
637.0	5.530554	-0.117991	8.96878	-0.122138	-0.2751	0.109547	-0.44458	-0.085693	-0.256836
638.0	5.635182	0.69221	9.363381	0.05989	-0.275081	-0.010646	-0.449463	-0.07251	-0.252686
639.0	5.432572	0.515301	8.849359	0.135162	-0.246844	-0.08039	-0.447021	-0.079102	-0.250244
640.0	5.426839	1.257902	9.296588	0.256744	-0.253002	-0.187317	-0.448975	-0.081299	-0.25708
641.0	5.5993	0.757602	8.845949	0.188453	-0.273315	-0.176368	-0.446777	-0.085693	-0.247803
642.0	5.629334	1.222503	8.886311	0.277531	-0.209334	-0.151628	-0.447021	-0.079102	-0.252441
643.0	5.339426	1.105241	8.998186	0.104092	-0.174382	-0.071673	-0.450928	-0.090088	-0.25
644.0	5.319107	1.399665	8.791629	0.154384	-0.139784	-0.086994	-0.44873	-0.087891	-0.252441
645.0	5.289161	1.768837	8.848715	0.129359	-0.14157	-0.063295	-0.448975	-0.085693	-0.247803
646.0	5.390791	1.475206	8.717847	0.066864	-0.140892	-0.021585	-0.446777	-0.085693	-0.25
647.0	5.359338	1.372715	8.733661	0.171314	-0.123544	-0.033151	-0.44873	-0.087891	-0.245605
648.0	5.422227	1.657103	8.811958	0.12834	-0.114474	0.001002	-0.451172	-0.083496	-0.245605
649.0	5.088309	1.298375	9.408292	-0.132438	-0.132928	0.139953	-0.450928	-0.090088	-0.243164
650.0	5.670012	1.229223	7.960814	0.125182	-0.063825	0.015339	-0.446533	-0.090088	-0.240967
651.0	4.823095	0.111231	8.647189	-0.065907	-0.209286	-0.166849	-0.446289	-0.092285	-0.243164
652.0	5.601035	1.882554	8.698638	0.616332	-0.099425	-0.214394	-0.435791	-0.087646	-0.247803
653.0	5.308111	2.962497	9.152186	0.106155	-0.189481	0.006905	-0.431885	-0.074707	-0.24585
654.0	5.076059	0.0032	8.14853	-0.037151	-0.258199	0.027444	-0.44751	-0.068115	-0.24585
655.0	5.33476	1.795489	8.714056	0.505904	-0.024858	-0.17325	-0.456055	-0.070557	-0.243652
656.0	5.910679	3.837534	8.613037	0.310683	-0.085174	0.102255	-0.455811	-0.074707	-0.241211
657.0	3.966732	1.193205	10.327578	-0.999816	-0.342146	0.541251	-0.455811	-0.079102	-0.243408
658.0	6.373998	0.545308	5.840475	0.676722	0.068796	0.187575	-0.458008	-0.079102	-0.236572
659.0	3.568473	2.599633	12.700071	-1.002665	-0.105202	0.452255	-0.455811	-0.074707	-0.24585
660.0	5.948763	1.658367	6.846462	-0.478763	-0.18228	1.086085	-0.458252	-0.070557	-0.239014
661.0	4.067636	-1.319752	9.452799	-0.45052	-0.315681	0.513891	-0.456299	-0.063965	-0.239014
662.0	5.013951	0.163598	8.593584	0.420697	-0.544939	0.125732	-0.456055	-0.070557	-0.234375
663.0	4.620603	1.523234	9.747832	0.432821	-0.865723	0.091635	-0.458252	-0.070557	-0.234375
664.0	4.70307	0.972348	9.325025	0.399981	-1.256936	0.176401	-0.460449	-0.070557	-0.2229
665.0	5.157028	1.160491	8.979148	0.641071	-1.463998	0.077952	-0.460449	-0.070557	-0.21167
666.0	4.866418	1.395847	9.516147	0.663678	-1.672755	0.053153	-0.464844	-0.070557	-0.209229
667.0	4.981701	1.260382	9.446353	0.576533	-1.981455	0.036612	-0.466797	-0.072754	-0.193359
668.0	5.191082	1.216436	9.210568	0.569535	-2.239838	-0.048622	-0.462158	-0.079346	-0.177246
669.0	5.284549	0.914429	9.549619	0.437468	-2.510911	-0.113489	-0.469238	-0.068604	-0.163818
670.0	5.217371	0.666044	9.143831	0.350747	-2.886716	-0.215591	-0.475586	-0.072998	-0.149902
671.0	5.377269	1.021938	8.968687	0.47493	-3.283874	-0.270841	-0.475586	-0.075195	-0.134033
672.0	5.16479	1.7986	9.371213	0.45147	-3.634657	-0.24369	-0.473389	-0.070801	-0.111328
673.0	5.087129	2.517236	9.191686	0.320023	-4.085368	-0.057806	-0.473633	-0.068848	-0.088623
674.0	4.640379	2.463951	9.829373	0.092024	-4.592014	0.277811	-0.473877	-0.060059	-0.054443
675.0	4.299954	2.225382	10.090583	0.033085	-5.290424	0.657408	-0.469971	-0.053711	-0.038818
676.0	4.16812	2.751511	11.456402	0.154337	-5.713332	1.241822	-0.463867	-0.042725	-0.004883
677.0	4.286528	3.296053	10.686938	-0.139762	-6.465147	1.813825	-0.457764	-0.031738	0.026855
678.0	1.307155	2.739699	9.634462	-0.791558	-6.692085	2.682609	-0.443359	-0.012207	0.060791
679.0	0.368129	2.992617	8.139239	-1.701924	-8.641986	2.537726	-0.422363	0.007568	0.103516
680.0	5.811901	2.475914	5.946041	-2.033261	-10.656804	2.146323	-0.394287	0.011963	0.144531
681.0	17.500995	1.115288	7.783971	-0.465123	-11.946946	1.28668	-0.364258	0.020752	0.192139
682.0	37.44783	1.978222	9.338446	1.067564	-11.053123	0.722587	-0.31665	0.031738	0.23291
683.0	38.379367	0.671557	7.162699	2.698197	-8.460665	0.79299	-0.275879	0.049316	0.282715
684.0	37.478856	6.179341	16.515916	4.289358	-7.161893	0.687196	-0.23584	0.075684	0.311768
685.0	31.322043	6.921693	16.514563	5.17375	-6.023781	0.7353	-0.195313	0.097656	0.347656
686.0	22.466885	7.991737	19.354366	7.660858	-5.868181	0.646783	-0.156006	0.145996	0.380859
687.0	8.77221	12.681538	31.253858	9.769634	-6.412783	1.118966	-0.10791	0.194336	0.405029
688.0	20.663006	22.735998	39.76642	0.00616	-2.677472	2.188526	-0.080322	0.20752	0.425049
689.0	18.176732	10.713873	26.215514	-2.144251	1.858973	0.088512	-0.074463	0.222656	0.452148
690.0	-1.889876	12.350264	16.106245	-1.518272	2.717945	-0.637038	-0.074951	0.235596	0.481445
691.0	-1.829269	5.965974	11.107182	-1.882192	1.618039	-0.238932	-0.075195	0.242188	0.499756
692.0	1.152335	3.965678	15.037572	-1.964201	3.163998	-1.255475	-0.08667	0.255127	0.52002
693.0	-3.868853	1.596218	9.18567	-2.206411	2.960316	-1.144469	-0.091553	0.266113	0.537842
694.0	-0.088072	0.569671	11.743035	0.024745	2.368844	-1.229876	-0.112549	0.296387	0.548828
695.0	2.364885	6.144915	15.221222	0.142849	2.942208	-1.382563	-0.135254	0.315918	0.56665
696.0	2.678027	3.791615	13.473503	-1.054392	3.773143	-1.423082	-0.168945	0.3396	0.58667
697.0	2.818288	3.04533	12.46153	-0.755543	4.181224	-1.467835	-0.213623	0.361084	0.600098
698.0	3.039926	2.664911	11.668372	-0.979797	4.652033	-1.519232	-0.286621	0.384521	0.613281
699.0	3.129144	1.361029	9.978475	-0.941245	4.929792	-1.537257	-0.370117	0.399414	0.613037
700.0	3.860076	1.316799	9.305271	-0.614054	5.100469	-1.5534	-0.468506	0.405273	0.588135
701.0	4.353597	1.841686	8.939891	-0.512949	5.277411	-1.529953	-0.570801	0.398193	0.53833
702.0	5.239568	1.862854	8.999791	-0.52451	5.331433	-1.478158	-0.659668	0.384766	0.440674
703.0	6.198882	2.241246	9.283365	-0.445729	5.475113	-1.469958	-0.710205	0.347656	0.315918
704.0	7.141571	2.019859	9.613649	-0.558129	5.556825	-1.404222	-0.691895	0.324219	0.168213
705.0	8.944963	1.66977	10.216411	-0.417932	5.611725	-1.305667	-0.604004	0.314209	0.07959
706.0	10.386231	1.130908	10.708784	-0.428265	5.892751	-1.336445	-0.484375	0.321533	0.065674
707.0	11.558048	0.59963	10.993254	-0.215451	6.096954	-1.43356	-0.416992	0.326172	0.131592
708.0	12.869081	1.141868	11.652388	-0.016856	6.250376	-1.401554	-0.42334	0.321533	0.208984
709.0	14.230763	0.973876	12.287351	0.189826	6.367404	-1.331211	-0.495361	0.270752	0.253418
710.0	15.996255	1.311692	13.388555	0.438704	6.467041	-1.281129	-0.571045	0.207031	0.245605
711.0	18.043659	1.683405	14.573155	0.623828	6.612459	-1.226885	-0.625977	0.121582	0.204102
712.0	21.000197	2.468834	15.152014	0.824056	6.784835	-1.175959	-0.664063	0.044922	0.164551
713.0	23.439115	4.012218	15.182815	0.919029	7.090288	-1.198212	-0.68457	-0.03125	0.11377
714.0	25.109787	5.770855	14.483875	0.789703	7.273961	-1.257385	-0.703613	-0.094727	0.062744
715.0	26.574758	7.021024	13.177815	0.68558	7.31829	-1.46291	-0.698975	-0.146729	-0.000244
716.0	28.285272	9.251951	12.024706	0.536497	7.197901	-1.788612	-0.688232	-0.192383	-0.053955
717.0	30.136102	10.348712	10.590603	-0.005338	7.048323	-2.172965	-0.671631	-0.224854	-0.117188
718.0	31.45344	7.992973	8.158854	-0.789254	6.91297	-2.618807	-0.639893	-0.250732	-0.166748
719.0	29.937411	1.313438	5.121281	-1.342564	6.630036	-3.050033	-0.5979	-0.265625	-0.212158
720.0	33.057338	1.757384	-1.476341	-0.576565	6.132826	-3.464806	-0.5625	-0.27832	-0.257568
721.0	31.725724	5.306127	-6.209378	-1.012839	5.927242	-3.327709	-0.531494	-0.284668	-0.291748
722.0	30.962444	2.51267	-12.314041	-2.296569	4.826348	-2.573487	-0.501221	-0.280029	-0.330566
723.0	30.372301	-9.77309	-20.227682	-2.742523	3.278093	-1.587008	-0.481934	-0.27124	-0.348877
724.0	32.854656	-20.111905	-33.493358	0.217403	1.457836	-1.327019	-0.475098	-0.279785	-0.351074
725.0	30.113415	-9.231206	-27.819488	4.059716	0.386572	-0.883159	-0.471924	-0.299561	-0.334717
726.0	28.721026	-0.296779	-13.997326	2.840063	-0.944793	0.189722	-0.47168	-0.306152	-0.325439
727.0	28.060812	1.910567	-4.696536	1.243812	-1.243346	0.924581	-0.480469	-0.306152	-0.323242
728.0	15.947781	9.597185	2.203541	-3.388433	-0.656117	1.618566	-0.494873	-0.275635	-0.326172
729.0	-17.597198	-1.984689	4.086935	-1.058318	-1.448681	2.811725	-0.519531	-0.262695	-0.326172
730.0	-7.770805	3.885048	19.779499	-3.676652	-3.806374	2.579251	-0.544678	-0.236816	-0.317627
731.0	5.725774	-3.688856	-4.656364	-1.505043	-4.400278	1.592488	-0.566895	-0.228271	-0.290527
732.0	19.719862	-5.272408	16.155007	1.799007	-6.514057	0.657221	-0.588379	-0.232666	-0.249268
733.0	24.968649	-1.289848	22.950644	0.674223	-4.375105	0.664041	-0.612549	-0.230713	-0.224121
734.0	14.713318	-6.126492	13.9355	0.830759	-3.982514	1.400211	-0.623535	-0.226563	-0.19458
735.0	16.399286	10.095536	13.641698	2.513918	-3.847715	0.423783	-0.638672	-0.229004	-0.174072
736.0	10.831025	14.77237	13.722652	0.39304	-3.032779	0.397749	-0.645752	-0.220215	-0.153809
737.0	9.33181	2.311821	9.150492	-0.216302	-3.051488	0.464181	-0.654297	-0.220459	-0.135498
738.0	21.825759	6.064008	21.657862	1.163653	-3.076605	0.212123	-0.660645	-0.224854	-0.11499
739.0	13.816856	18.488157	8.750147	-2.071375	-0.607102	0.176203	-0.663574	-0.21167	-0.117432
740.0	4.957574	1.832255	13.786257	-3.087181	-1.57965	1.057908	-0.67041	-0.200928	-0.11084
741.0	8.713706	-5.45898	9.054867	-2.142507	-1.208247	1.321577	-0.686279	-0.187988	-0.113281
742.0	7.740601	0.046569	10.192742	-0.639122	-0.556968	0.029637	-0.682129	-0.185791	-0.113281
743.0	6.967661	3.091265	12.519688	-1.219418	-0.439945	0.119253	-0.681885	-0.187988	-0.102051
744.0	4.328786	-1.19647	8.373385	-1.036215	-0.290138	0.352074	-0.680176	-0.181396	-0.099854
745.0	5.768236	1.623847	9.846207	-0.167052	-0.452323	0.034506	-0.684326	-0.183594	-0.102051
746.0	5.722617	0.517732	9.246658	-0.43299	-0.428054	0.172577	-0.688965	-0.179199	-0.097656
747.0	5.097568	0.409779	9.303669	0.104045	-0.430547	0.038609	-0.686768	-0.181396	-0.095215
748.0	5.321025	1.493017	9.50309	0.170321	-0.533536	-0.025599	-0.688721	-0.183594	-0.090576
749.0	5.376322	1.383691	8.930114	0.316614	-0.535628	-0.05648	-0.693115	-0.181396	-0.088379
750.0	5.272176	1.582343	8.95674	0.336793	-0.496431	-0.098288	-0.691162	-0.179199	-0.081543
751.0	5.713422	1.065312	8.442867	0.398222	-0.333983	-0.355995	-0.690918	-0.181396	-0.079346
752.0	5.535032	2.319826	9.258787	0.320455	-0.256168	-0.244562	-0.692871	-0.187988	-0.079102
753.0	5.516018	1.771544	8.855872	0.221335	-0.273829	-0.094188	-0.694824	-0.19458	-0.069824
754.0	5.47082	2.2858	8.901102	0.151709	-0.244606	-0.011858	-0.692871	-0.190186	-0.076904
755.0	5.246212	2.114999	8.700446	0.054955	-0.236549	0.063999	-0.695068	-0.187988	-0.070068
756.0	5.356877	2.180411	8.687968	0.112543	-0.195452	0.019426	-0.692871	-0.185791	-0.067871
757.0	5.248282	2.111067	8.939455	-0.06533	-0.186232	0.108764	-0.694824	-0.19458	-0.067627
758.0	5.38628	1.847221	8.496627	0.081356	-0.15345	0.0498	-0.688232	-0.192383	-0.053955
759.0	5.277947	2.328102	8.861629	-0.047255	-0.171469	0.130893	-0.69043	-0.192383	-0.062988
760.0	5.530829	0.958198	7.852682	0.132871	-0.173384	-0.066253	-0.679932	-0.187988	-0.067627
761.0	4.904661	2.974465	9.621983	0.037717	-0.16943	0.101491	-0.669434	-0.174805	-0.070313
762.0	5.800611	2.086519	8.021778	0.037407	-0.196138	0.137891	-0.679199	-0.155273	-0.072998
763.0	4.917145	1.65492	9.154398	-0.41852	-0.199597	0.297019	-0.697021	-0.144531	-0.068604
764.0	5.943465	1.336895	7.773472	0.413855	0.007174	-0.036089	-0.702881	-0.157715	-0.059082
765.0	5.31888	5.871477	10.026756	-0.327522	-0.015485	0.653638	-0.707031	-0.164063	-0.063721
766.0	5.590407	-2.119628	6.026192	-0.49443	-0.192875	0.342849	-0.709229	-0.164307	-0.063721
767.0	4.153753	3.375408	11.551677	0.10027	0.095069	0.419827	-0.702393	-0.168457	-0.063477
768.0	5.298765	1.69434	8.057158	-0.336299	-0.180716	0.64149	-0.707275	-0.157715	-0.059082
769.0	4.749769	0.426596	8.750018	-0.179131	-0.296764	0.451525	-0.709473	-0.159912	-0.056885
770.0	5.004662	1.775878	9.252026	0.08202	-0.378575	0.387561	-0.707275	-0.157715	-0.056885
771.0	5.147647	1.392906	8.957332	-0.055984	-0.61569	0.46542	-0.70752	-0.15332	-0.05249
772.0	4.791033	0.732799	9.048224	0.154691	-0.805642	0.378538	-0.712158	-0.146729	-0.048096
773.0	4.866064	1.39019	9.28208	0.351341	-1.057574	0.274845	-0.712158	-0.146729	-0.036621
774.0	4.662846	1.158527	9.49488	0.395268	-1.380554	0.232378	-0.71875	-0.144775	-0.025146
775.0	4.914082	1.095674	9.312804	0.540204	-1.713906	0.12211	-0.714355	-0.144775	-0.009277
776.0	4.809235	0.996506	9.494963	0.658488	-2.062869	0.024801	-0.71875	-0.146973	0.01123
777.0	5.144445	0.989517	9.318744	0.716729	-2.371615	-0.101364	-0.71875	-0.146973	0.018066
778.0	5.068361	0.736243	9.306547	0.721894	-2.738374	-0.220676	-0.718994	-0.142822	0.04541
779.0	5.208674	0.897661	9.239121	0.639244	-3.056812	-0.358846	-0.714355	-0.14502	0.068115
780.0	5.065238	1.150916	9.338351	0.622655	-3.431441	-0.440409	-0.7146	-0.142822	0.097656
781.0	5.20046	1.948657	9.174335	0.641444	-3.907906	-0.427803	-0.720703	-0.149414	0.125244
782.0	4.405261	2.332078	9.319767	0.493847	-4.342468	-0.229778	-0.711914	-0.149414	0.152588
783.0	4.305196	2.543838	9.302854	0.526769	-4.999617	0.059217	-0.707764	-0.147461	0.188965
784.0	4.606252	3.06451	10.125038	0.538025	-5.49682	0.491161	-0.701416	-0.143066	0.22998
785.0	3.700188	3.207814	11.344589	0.400911	-5.863123	1.185694	-0.699707	-0.130127	0.270752
786.0	2.730752	1.959118	9.04062	0.791991	-6.775298	1.702433	-0.689453	-0.114746	0.318359
787.0	3.026428	3.871054	9.531094	1.073816	-7.781683	2.44667	-0.671143	-0.086426	0.370117
788.0	2.859626	4.034035	6.295023	-0.397485	-8.996219	2.225907	-0.645752	-0.071289	0.428955
789.0	10.718797	4.880732	9.053906	-0.243268	-10.43447	2.192631	-0.604736	-0.062256	0.494873
790.0	24.16951	5.141939	11.093833	-0.156059	-11.405599	1.861946	-0.555176	-0.044678	0.555908
791.0	38.465393	2.893038	6.052064	1.780778	-10.71183	1.743754	-0.510498	-0.020508	0.603271
792.0	36.435189	5.267161	12.189809	2.8313	-7.741097	0.819541	-0.476807	0.007813	0.643799
793.0	38.638771	10.043318	15.781544	4.036786	-6.658306	0.941652	-0.445557	0.040771	0.668213
794.0	24.99889	8.401605	19.151666	5.571826	-6.169578	1.143956	-0.4021	0.091309	0.680908
795.0	20.804014	13.67027	22.277013	7.015839	-6.389283	1.616288	-0.369873	0.152588	0.697754
796.0	4.470613	18.504873	39.753422	3.583755	-4.302981	2.626795	-0.34668	0.170166	0.701904
797.0	22.456539	13.870024	30.335498	-2.212595	-1.466187	1.617172	-0.342285	0.170166	0.706543
798.0	12.681582	12.418385	26.391962	-0.749507	2.184291	-0.021176	-0.35791	0.174561	0.686035
799.0	-2.933068	13.039472	16.39192	-2.692238	2.847261	-0.561748	-0.376709	0.158936	0.681641
800.0	-2.290015	4.338345	10.449257	-2.408789	2.168626	-0.430838	-0.387695	0.158936	0.674805
801.0	-3.55913	4.644605	12.905462	-2.123195	2.918396	-0.937985	-0.404541	0.145752	0.661377
802.0	-3.653464	1.653582	10.371142	-2.050253	2.303595	-0.704299	-0.415039	0.13501	0.645752
803.0	1.575645	2.804641	14.124663	-0.54593	2.376682	-0.788212	-0.432861	0.143555	0.645508
804.0	3.03692	4.594138	15.46151	-1.131156	3.22595	-0.882537	-0.447754	0.134766	0.629883
805.0	3.17056	3.449204	13.916377	-1.060663	3.942115	-0.972138	-0.469482	0.134521	0.616211
806.0	3.465872	3.53425	13.106224	-1.203026	4.561119	-1.041533	-0.498047	0.136719	0.602539
807.0	3.231122	2.511123	10.967152	-1.231634	5.034402	-1.104665	-0.528564	0.138672	0.588867
808.0	3.63118	2.089681	9.715592	-1.074278	5.293905	-1.143385	-0.561035	0.13208	0.554932
809.0	4.596781	2.114533	9.32619	-1.109452	5.478451	-1.146799	-0.602539	0.131836	0.529785
810.0	5.284169	0.994911	8.277329	-0.859216	5.662825	-1.133733	-0.630859	0.135986	0.495605
811.0	6.391268	1.830865	8.822916	-0.534989	5.762193	-1.140466	-0.663574	0.133789	0.459229
812.0	7.587244	1.709872	9.023713	-0.519183	5.896314	-1.114966	-0.689697	0.131592	0.413574
813.0	9.175983	1.942293	9.62085	-0.365735	6.005176	-1.096005	-0.70459	0.125	0.384277
814.0	10.65326	2.172523	9.930568	-0.320918	6.215398	-1.086625	-0.730713	0.120605	0.350098
815.0	11.79323	2.167246	10.508506	-0.303423	6.310707	-1.052881	-0.75708	0.126953	0.313477
816.0	13.235903	2.06558	10.582827	0.004611	6.494186	-1.16075	-0.794189	0.12915	0.254395
817.0	13.541226	2.475711	11.10801	0.028795	6.562103	-1.208402	-0.820557	0.131348	0.188232
818.0	15.427411	2.262893	12.171748	0.37538	6.536245	-1.283688	-0.837158	0.11377	0.124756
819.0	17.843848	2.720241	13.704037	0.54674	6.590566	-1.321281	-0.8479	0.109619	0.040527
820.0	20.957917	3.189016	14.567817	0.810935	6.684109	-1.347755	-0.851318	0.087891	-0.03418
821.0	23.882615	4.47593	15.050001	0.914723	6.916195	-1.381294	-0.83252	0.055664	-0.120117
822.0	26.067862	5.908624	14.350861	0.857294	7.125531	-1.435312	-0.805664	0.038574	-0.192871
823.0	28.104907	7.525018	13.065597	0.791241	7.211422	-1.56866	-0.77124	0.001709	-0.258301
824.0	29.847552	8.96169	11.507269	0.472437	7.178588	-1.825724	-0.728516	-0.023926	-0.317139
825.0	31.443563	10.089809	9.515983	0.081412	7.086799	-2.155034	-0.688232	-0.049805	-0.371338
826.0	32.185297	9.096546	6.748199	-0.688166	6.957924	-2.542207	-0.644043	-0.064697	-0.412109
827.0	30.235894	2.979539	3.687611	-1.535115	6.710731	-2.994753	-0.60376	-0.083984	-0.455078
828.0	30.805945	-0.300441	-2.647085	-0.756593	6.095669	-3.554181	-0.559082	-0.109863	-0.493408
829.0	30.857884	4.868918	-5.450251	-0.507322	5.663162	-3.689095	-0.514648	-0.126953	-0.520508
830.0	30.019383	5.494818	-10.084569	-2.1135	4.813975	-3.100586	-0.483887	-0.135254	-0.538574
831.0	30.546126	-3.36132	-13.312404	-3.320235	3.708052	-2.130725	-0.458252	-0.12207	-0.559326
832.0	33.264328	-16.554702	-24.42445	-2.312568	1.833241	-1.455362	-0.447266	-0.121826	-0.568359
833.0	33.305361	-19.633636	-30.219202	2.240089	1.723799	-1.086555	-0.428467	-0.152344	-0.563232
834.0	22.895666	-5.483388	-18.471362	3.400235	0.339866	-0.1471	-0.429932	-0.169922	-0.565186
835.0	22.999899	-0.278982	-18.143647	-0.814368	-1.197896	1.199439	-0.452393	-0.156982	-0.560791
836.0	3.677082	-5.228637	-27.437402	0.607262	-2.206073	2.41516	-0.476807	-0.14624	-0.542969
837.0	-4.43332	3.087155	33.041026	0.496456	-5.739558	3.669535	-0.520996	-0.133545	-0.518066
838.0	21.798566	10.639542	15.83031	-0.944811	-3.375048	1.998192	-0.538818	-0.122559	-0.513672
839.0	5.27215	6.213984	-1.560531	-0.420779	-3.969972	1.621306	-0.573975	-0.118652	-0.479492
840.0	21.765616	4.684472	21.389768	2.124667	-6.066858	1.025797	-0.604248	-0.123291	-0.449707
841.0	22.745419	5.623209	20.733535	-0.131193	-4.026262	1.006562	-0.626465	-0.114746	-0.420166
842.0	16.14626	-1.952212	13.622011	0.678803	-3.812316	1.228811	-0.645996	-0.117188	-0.39502
843.0	13.324693	8.924405	13.935064	1.432379	-3.29634	0.26514	-0.663086	-0.123779	-0.378906
844.0	9.614019	6.338125	11.511653	0.18672	-3.097321	0.347139	-0.682617	-0.126221	-0.351563
845.0	24.742768	15.676002	20.943078	1.196918	-2.448285	0.054076	-0.687256	-0.119629	-0.344971
846.0	6.198417	11.116388	7.986789	-4.470092	-0.473188	0.755353	-0.692871	-0.093506	-0.347656
847.0	8.853278	-3.399643	11.767457	-2.723478	-1.28261	1.221812	-0.704346	-0.078369	-0.334229
848.0	6.626548	-0.744705	9.677126	-0.973042	-1.075122	0.39574	-0.704346	-0.080566	-0.32959
849.0	8.099885	3.838403	12.758318	-1.213707	-0.868404	0.217852	-0.709229	-0.06543	-0.322998
850.0	8.447765	-1.964122	10.75516	-1.559568	-0.521664	0.71115	-0.714111	-0.056641	-0.325439
851.0	3.810539	-0.220376	8.032033	0.050251	-0.317534	0.007905	-0.713867	-0.058838	-0.318604
852.0	5.616597	1.895522	10.792972	-0.324313	-0.460164	0.003652	-0.716309	-0.056641	-0.316406
853.0	5.103115	0.738717	8.963121	0.158754	-0.517464	0.011282	-0.718018	-0.06543	-0.313965
854.0	5.240169	0.436631	9.546886	0.271871	-0.56955	-0.070287	-0.718506	-0.056641	-0.304932
855.0	5.102995	1.486244	9.426249	0.590796	-0.635393	-0.235249	-0.722412	-0.06543	-0.30249
856.0	5.368326	2.036967	8.991655	0.464458	-0.59849	-0.167172	-0.726807	-0.06543	-0.298096
857.0	5.152513	1.303852	8.443443	0.422766	-0.452381	-0.321927	-0.722168	-0.069824	-0.297852
858.0	5.443921	3.595058	9.527135	0.447678	-0.341277	-0.107939	-0.721924	-0.076416	-0.293213
859.0	5.307447	1.710374	8.481612	0.002123	-0.383827	0.033449	-0.728516	-0.076416	-0.288574
860.0	5.218384	0.940344	8.085256	0.367634	-0.288121	-0.314081	-0.724121	-0.074219	-0.288818
861.0	5.251824	3.77476	9.660516	0.240623	-0.21583	-0.125578	-0.726318	-0.076416	-0.281738
862.0	5.3813	1.845165	8.217569	-0.005416	-0.206421	-0.016345	-0.730469	-0.078613	-0.288574
863.0	5.264692	3.07879	8.850211	0.012893	-0.146621	-0.00748	-0.732422	-0.085205	-0.279297
864.0	5.276465	2.568052	8.527433	-0.126204	-0.122707	0.07774	-0.734863	-0.080811	-0.283936
865.0	5.199137	2.542008	8.639213	-0.158449	-0.08553	0.119464	-0.737061	-0.076416	-0.277344
866.0	5.255716	2.600663	8.755634	-0.254972	-0.074847	0.219697	-0.73291	-0.076416	-0.277344
867.0	5.057158	1.9104	8.89931	-0.290851	-0.075425	0.282857	-0.728027	-0.085205	-0.274902
868.0	5.243205	0.854061	8.077206	0.066903	-0.108904	0.056056	-0.721924	-0.078613	-0.274902
869.0	5.30808	2.26201	8.784846	0.13548	-0.135898	-0.038844	-0.711426	-0.067627	-0.281982
870.0	5.408086	2.2296	8.869563	-0.103129	-0.120433	0.086766	-0.716553	-0.050293	-0.289307
871.0	5.221719	1.595466	8.376728	0.033293	-0.103621	0.044314	-0.734619	-0.034912	-0.289551
872.0	5.26887	2.378655	8.993005	0.02211	-0.148908	0.131591	-0.749756	-0.037354	-0.280273
873.0	5.476702	1.93303	8.292664	0.126959	-0.108727	0.073276	-0.749268	-0.05249	-0.275391
874.0	5.081998	1.613435	8.7562	-0.133342	-0.181969	0.086346	-0.753418	-0.056885	-0.275391
875.0	5.499459	3.025202	8.895927	0.140517	-0.131663	0.200239	-0.74707	-0.050293	-0.277832
876.0	4.207272	0.447421	9.421595	-0.573059	-0.256495	0.416394	-0.744629	-0.056885	-0.273193
877.0	5.768683	1.334277	7.293941	1.027173	-0.073725	-0.141157	-0.742188	-0.061279	-0.272949
878.0	4.57279	5.152922	10.957663	-0.370819	-0.456379	0.507635	-0.749268	-0.052734	-0.266357
879.0	4.286254	-1.527591	7.805914	-0.108565	-0.650404	0.373824	-0.749268	-0.052734	-0.261719
880.0	4.47304	2.438016	10.041133	0.574382	-0.710906	0.087692	-0.751221	-0.052734	-0.261719
881.0	4.643224	1.957244	9.43322	0.200336	-1.093222	0.251287	-0.753418	-0.052734	-0.248047
882.0	4.752071	0.904572	9.078136	0.442459	-1.29425	0.103709	-0.759766	-0.059326	-0.23877
883.0	4.793908	1.699784	9.485312	0.60907	-1.563006	-0.047105	-0.763916	-0.061523	-0.2229
884.0	4.746586	1.895576	9.212988	0.597799	-1.906961	-0.117687	-0.772705	-0.05957	-0.209229
885.0	5.032146	1.727194	9.29678	0.687919	-2.233759	-0.16707	-0.776855	-0.066162	-0.195313
886.0	4.943894	1.502874	9.057023	0.67827	-2.514146	-0.273558	-0.783203	-0.072754	-0.172363
887.0	5.125773	1.123588	9.022597	0.760182	-2.860459	-0.380193	-0.791748	-0.074951	-0.14502
888.0	5.015425	1.401191	8.628543	0.730989	-3.217353	-0.575867	-0.795898	-0.07959	-0.113037
889.0	4.663023	2.162346	9.064103	0.81484	-3.671316	-0.522239	-0.799805	-0.088379	-0.081055
890.0	4.54588	2.299105	8.822922	0.613851	-4.209886	-0.473558	-0.812744	-0.090576	-0.046631
891.0	4.698125	2.387414	8.676238	0.892344	-4.707773	-0.289175	-0.814697	-0.099609	-0.000977
892.0	4.434485	2.495184	9.178384	1.352949	-5.205077	0.1232	-0.819092	-0.097412	0.040039
893.0	4.176459	3.081912	9.840202	1.305737	-5.630663	0.501304	-0.82373	-0.091064	0.092285
894.0	6.459216	4.74099	11.448705	0.650878	-5.920139	1.048907	-0.819824	-0.078125	0.144531
895.0	0.469681	2.185269	7.136273	0.70417	-6.661764	1.681755	-0.816162	-0.065186	0.198975
896.0	4.997658	2.895371	7.113146	1.440826	-8.591239	1.85293	-0.803711	-0.047852	0.276123
897.0	7.154003	4.850448	7.378822	2.213387	-9.114748	2.230986	-0.791504	-0.02832	0.35083
898.0	11.136222	8.32685	12.334645	0.539479	-10.526128	2.092617	-0.759521	-0.010742	0.434814
899.0	28.557074	4.525759	8.182424	0.976469	-11.343647	1.863448	-0.716797	0.006592	0.518799
900.0	35.530016	5.077654	6.789967	2.852913	-9.849669	1.014233	-0.676025	0.02417	0.579834
901.0	34.186794	8.691979	14.860134	3.292282	-8.125813	0.84789	-0.635498	0.043945	0.636475
902.0	33.974994	12.18619	12.206235	3.325697	-6.610399	0.774965	-0.601807	0.068115	0.670166
903.0	28.697335	12.221463	28.668861	2.962175	-5.685098	1.354897	-0.568115	0.094482	0.696777
904.0	19.965971	9.696786	17.979326	5.633314	-6.114737	2.081013	-0.529297	0.153564	0.7229
905.0	2.671894	17.443914	39.086861	3.522531	-3.495531	2.606397	-0.505859	0.166748	0.734131
906.0	25.35063	14.935634	34.922052	-2.698405	-0.856557	1.875445	-0.511963	0.155762	0.734375
907.0	14.115895	9.655416	26.507022	-1.549624	3.005642	0.801014	-0.528809	0.142822	0.716309
908.0	-1.942786	10.257478	16.633876	-2.921796	3.613241	0.56608	-0.553955	0.123047	0.698486
909.0	-2.401714	3.290248	11.14148	-2.833688	3.421591	0.78945	-0.570801	0.107666	0.6875
910.0	-1.750948	1.905111	10.612523	-1.684865	3.244766	0.709263	-0.587646	0.094482	0.669678
911.0	-1.830961	2.58609	10.419883	-1.132909	3.191332	0.636349	-0.602539	0.085693	0.653809
912.0	0.63074	3.329618	11.762723	-0.503112	3.350837	0.520353	-0.615723	0.085693	0.631104
913.0	2.390487	4.915732	12.467949	-0.332258	3.877741	0.285582	-0.637207	0.081299	0.60376
914.0	2.677965	5.806635	11.615292	-0.374637	4.443319	-0.01168	-0.6521	0.074707	0.574219
915.0	3.138228	5.958416	10.565207	-0.583814	4.903473	-0.357421	-0.67749	0.057129	0.545166
916.0	3.383596	5.130094	9.133205	-0.758716	5.230543	-0.699295	-0.69458	0.04834	0.508789
917.0	3.56847	4.068255	8.077654	-0.833122	5.424696	-0.982016	-0.717773	0.028564	0.468262
918.0	4.48834	2.77844	7.697708	-0.789916	5.521432	-1.18701	-0.734375	0.01123	0.429688
919.0	4.989988	2.263878	7.659606	-0.715026	5.626985	-1.306588	-0.742676	-0.001953	0.384521
920.0	6.79937	1.41245	8.064302	-0.408597	5.5754	-1.306354	-0.752441	-0.025879	0.343994
921.0	7.527314	1.264143	8.768694	-0.479109	5.840472	-1.401724	-0.758057	-0.047607	0.307861
922.0	9.134292	1.037066	9.416544	-0.346311	5.954936	-1.372024	-0.759277	-0.067139	0.260498
923.0	10.207516	1.163765	9.980014	-0.350499	6.157188	-1.345648	-0.769531	-0.080078	0.221924
924.0	11.228775	0.698418	10.479781	-0.333588	6.300366	-1.28035	-0.775391	-0.097656	0.181396
925.0	12.574379	0.201027	11.059887	-0.14531	6.396878	-1.200975	-0.781494	-0.110596	0.135986
926.0	14.04324	0.130051	11.741626	0.087974	6.491874	-1.113862	-0.781006	-0.119141	0.08374
927.0	15.946226	0.405888	12.470157	0.381163	6.569099	-1.010638	-0.780762	-0.125732	0.03833
928.0	18.08549	1.717437	13.498954	0.65783	6.677483	-0.902035	-0.776123	-0.13208	-0.009521
929.0	20.443988	3.734697	14.434693	0.779866	6.81968	-0.852565	-0.764648	-0.142822	-0.068604
930.0	22.475439	5.222628	15.019411	0.690892	6.987772	-0.878289	-0.758057	-0.146973	-0.12085
931.0	25.420522	6.830366	14.632251	0.741588	7.092381	-1.024147	-0.735596	-0.161865	-0.173096
932.0	28.044755	8.765524	13.859325	0.594621	7.216423	-1.316953	-0.715332	-0.174805	-0.225342
933.0	30.720148	10.915794	11.873543	0.442618	7.241544	-1.676337	-0.684326	-0.1875	-0.275146
934.0	33.347135	13.035939	10.335597	-0.091146	7.247743	-2.07295	-0.651123	-0.195801	-0.334229
935.0	34.163301	10.700105	6.728072	-0.962282	7.301506	-2.499076	-0.611084	-0.212891	-0.381836
936.0	32.286541	3.482289	2.386943	-1.372516	7.039712	-2.948668	-0.569336	-0.221191	-0.429688
937.0	32.296646	1.112575	-4.020198	-0.211814	6.520584	-3.381832	-0.520264	-0.24707	-0.460938
938.0	29.747139	4.496646	-9.514218	0.123468	5.768098	-3.432655	-0.47583	-0.261963	-0.490479
939.0	29.216141	2.932154	-13.640708	-1.13892	4.595005	-3.224484	-0.438721	-0.266113	-0.515381
940.0	32.935028	-2.80394	-19.766164	-1.165335	2.894505	-2.504179	-0.418701	-0.272461	-0.535889
941.0	34.873171	-12.225002	-25.88458	-0.529229	1.73529	-1.961975	-0.398926	-0.278809	-0.535889
942.0	32.42232	-11.240973	-27.729466	1.676751	0.896293	-1.346269	-0.395996	-0.291992	-0.531006
943.0	25.353321	-6.365004	-18.675908	1.672473	-0.406571	-0.515624	-0.397705	-0.305176	-0.52832
944.0	17.15182	1.237818	-3.654267	-0.04764	-0.525702	0.630521	-0.41333	-0.296387	-0.533203
945.0	-0.316254	-5.044257	-20.304989	-1.469076	-2.560564	1.123286	-0.428711	-0.294434	-0.51709
946.0	-15.232769	5.277524	40.339782	-2.418969	-3.920088	2.439301	-0.463135	-0.257568	-0.517822
947.0	8.941894	-9.367329	-2.338382	-1.891367	-3.615971	2.360746	-0.496094	-0.249023	-0.499756
948.0	12.202153	-1.860999	5.718284	2.049056	-6.108895	1.052488	-0.535156	-0.253662	-0.454102
949.0	29.717966	7.082056	25.214905	1.83291	-5.359607	0.847454	-0.565674	-0.256104	-0.435791
950.0	16.393368	0.133098	16.181755	0.09775	-3.963166	1.254125	-0.585205	-0.25415	-0.40625
951.0	16.381504	4.452461	14.924835	1.870629	-4.153375	1.035808	-0.611084	-0.260986	-0.380859
952.0	13.307735	12.599067	13.845949	0.822206	-3.29181	0.599152	-0.633057	-0.256836	-0.358154
953.0	8.922139	4.445847	10.123746	0.097078	-3.214649	0.411483	-0.637207	-0.26123	-0.339844
954.0	11.004185	3.268454	12.601542	0.640636	-3.213458	0.232261	-0.659424	-0.25708	-0.3125
955.0	24.218379	16.366274	18.627151	0.337489	-2.07731	0.391965	-0.668213	-0.250732	-0.305908
956.0	4.261747	10.692431	9.084367	-4.279543	-0.475324	0.733604	-0.671387	-0.230957	-0.31543
957.0	8.139017	-1.169378	10.946126	-2.641868	-1.927083	1.548378	-0.681152	-0.209229	-0.306641
958.0	9.087025	-3.442925	12.182586	-2.213399	-0.884067	0.861405	-0.688232	-0.196289	-0.304688
959.0	9.675	-0.615321	11.915743	-1.182836	-0.369593	0.308207	-0.686035	-0.194092	-0.309082
960.0	4.614066	-0.558631	8.662814	-0.880593	-0.109545	0.254814	-0.686279	-0.189697	-0.307129
961.0	5.668094	0.519156	10.848311	-0.506659	-0.396154	0.17681	-0.692871	-0.1875	-0.307129
962.0	4.890161	0.777661	8.90679	-0.197923	-0.384086	0.106437	-0.695313	-0.183105	-0.298096
963.0	5.544605	1.930003	9.79179	-0.196459	-0.482588	0.108418	-0.693115	-0.183105	-0.304932
964.0	5.189374	0.280407	8.975517	-0.081494	-0.48626	0.111104	-0.69751	-0.180908	-0.295654
965.0	5.134408	1.813352	9.49887	0.212089	-0.479232	-0.049586	-0.695313	-0.183105	-0.29126
966.0	5.548724	0.80043	8.530999	0.045994	-0.438965	-0.178163	-0.708252	-0.185547	-0.288818
967.0	5.408611	2.946312	9.53412	0.330171	-0.298311	0.002632	-0.704102	-0.181152	-0.288818
968.0	5.024405	0.847347	8.859387	-0.241438	-0.4014	0.128169	-0.704102	-0.18335	-0.284424
969.0	5.881982	1.349311	8.328006	0.440917	-0.147724	-0.189681	-0.701904	-0.183105	-0.288818
970.0	5.036462	2.200281	9.6493	-0.34507	-0.244867	-0.044151	-0.708496	-0.18335	-0.281982
971.0	5.455623	0.828233	8.200754	-0.014051	-0.128587	0.026883	-0.708008	-0.189697	-0.28418
972.0	5.096391	2.251351	9.089824	-0.098253	-0.106404	0.016685	-0.710693	-0.18335	-0.279785
973.0	5.297527	1.661006	8.611386	-0.107263	-0.087273	0.022479	-0.706055	-0.189941	-0.275146
974.0	5.292705	1.783821	8.90986	-0.146668	-0.057486	0.02465	-0.712646	-0.185547	-0.277344
975.0	5.213851	1.213057	8.661752	-0.149946	-0.043425	0.027288	-0.712646	-0.185547	-0.281982
976.0	5.189363	1.401196	8.750317	-0.102822	-0.012608	-0.019084	-0.703857	-0.187744	-0.272949
977.0	5.152528	1.526913	8.724207	-0.052949	-0.007101	0.015232	-0.701416	-0.191895	-0.270508
978.0	5.19981	1.815004	8.774094	-0.041025	-0.097144	0.15653	-0.697266	-0.1875	-0.275146
979.0	4.918772	0.727618	8.910353	-0.300434	-0.153735	0.226725	-0.687012	-0.174316	-0.286865
980.0	5.309487	0.7816	8.469082	0.323809	-0.041754	-0.078053	-0.694336	-0.15918	-0.284912
981.0	4.972006	1.764497	9.013182	-0.004331	-0.127925	-0.044115	-0.703369	-0.150391	-0.280518
982.0	5.415083	1.393549	8.537905	0.149237	-0.073895	-0.067491	-0.720703	-0.152832	-0.278076
983.0	5.130306	1.807509	8.902906	0.175247	-0.120683	-0.038007	-0.719971	-0.166016	-0.277832
984.0	5.144212	2.358004	8.932752	-0.06205	-0.160218	0.131411	-0.715576	-0.170166	-0.273193
985.0	4.635773	0.33965	8.846956	-0.471767	-0.192566	0.196898	-0.718018	-0.165771	-0.275635
986.0	5.722878	1.013312	7.960233	0.700114	-0.022066	-0.202323	-0.72168	-0.178955	-0.272949
987.0	4.174598	6.01879	11.029283	-0.130201	-0.19245	0.51149	-0.719971	-0.168213	-0.268555
988.0	4.31791	-2.216626	8.413062	-1.164218	-0.676796	0.626306	-0.724365	-0.166016	-0.270996
989.0	5.276839	1.401124	8.44642	0.906212	-0.349489	0.257788	-0.722168	-0.17041	-0.266357
990.0	4.17788	2.712203	10.196937	-0.193651	-0.871861	0.481635	-0.729004	-0.161621	-0.257324
991.0	5.219044	-0.399943	8.582673	0.019024	-1.069727	0.534336	-0.739746	-0.163818	-0.250488
992.0	4.882839	0.534423	8.990767	0.62254	-1.165343	0.202616	-0.739746	-0.166016	-0.239014
993.0	4.735028	1.711853	9.9353	0.461002	-1.449937	0.166143	-0.746338	-0.164063	-0.225342
994.0	5.223166	1.337306	8.979491	0.339146	-1.752612	0.168616	-0.749023	-0.155273	-0.207275
995.0	4.756062	0.892707	9.433397	0.51056	-2.05264	0.064614	-0.757568	-0.157715	-0.18457
996.0	5.579895	0.936001	9.036116	0.579479	-2.36466	-0.026825	-0.761719	-0.162109	-0.170654
997.0	5.200549	0.543719	9.138884	0.532938	-2.620394	-0.175846	-0.765625	-0.168701	-0.150146
998.0	5.283049	1.276902	9.566554	0.603257	-2.921887	-0.222719	-0.771973	-0.173096	-0.127197
999.0	5.567296	1.792422	9.228604	0.453255	-3.328514	-0.214002	-0.778564	-0.17334	-0.097656
1000.0	5.230467	2.220265	9.785878	0.228967	-3.605187	-0.092356	-0.785156	-0.17334	-0.070068
1001.0	5.046903	2.123714	9.296445	0.033682	-4.03528	0.07164	-0.791748	-0.171387	-0.031494
1002.0	4.714839	2.107283	9.718559	-0.073239	-4.503382	0.316653	-0.79834	-0.171387	0.007324
1003.0	4.976114	2.470125	9.697669	-0.199831	-5.008406	0.643524	-0.80957	-0.165039	0.043701
1004.0	5.000297	2.536293	10.940121	-0.615932	-5.162206	1.138947	-0.803711	-0.149902	0.082031
1005.0	3.759333	1.357087	10.781975	-0.862377	-5.66513	1.42309	-0.806152	-0.141357	0.125244
1006.0	1.603122	0.832134	9.082225	0.278892	-6.307741	2.210555	-0.809082	-0.124023	0.181885
1007.0	0.838661	4.021331	8.57316	-0.331137	-8.023866	2.046172	-0.807617	-0.111084	0.254639
1008.0	5.303021	3.51766	6.83751	-1.374376	-9.889067	2.083726	-0.779785	-0.095703	0.327148
1009.0	15.226275	1.803042	6.246075	-0.450217	-11.086594	1.567447	-0.753906	-0.089355	0.418213
1010.0	31.707797	1.796874	8.445753	0.763226	-10.854106	0.984703	-0.715088	-0.082764	0.488525
1011.0	36.07023	0.123954	8.758715	2.58311	-8.925663	0.544111	-0.685303	-0.062988	0.549805
1012.0	35.13432	7.924508	15.204573	3.921741	-7.801598	0.757412	-0.647217	-0.038818	0.606201
1013.0	33.280232	7.46297	17.065147	3.49315	-6.649238	1.098081	-0.622314	-0.010498	0.639648
1014.0	25.110658	8.164881	19.981343	4.755118	-6.017831	0.769928	-0.582764	0.033447	0.67749
1015.0	15.38107	9.452416	16.609317	8.089552	-5.947874	0.689866	-0.550781	0.098877	0.715088
1016.0	7.706674	22.643306	42.947786	3.484544	-5.13788	2.536684	-0.520752	0.112061	0.728271
1017.0	31.589303	15.241518	32.815234	-2.978118	0.417653	0.419417	-0.534912	0.085938	0.719727
1018.0	2.041086	10.667562	18.854594	-2.240599	2.86717	-0.832068	-0.558105	0.068359	0.701904
1019.0	-6.875513	7.133257	12.720985	-2.470905	2.151344	-0.554514	-0.565918	0.048584	0.695557
1020.0	3.481238	3.351356	13.396828	-1.473775	1.811007	-0.778409	-0.580566	0.0354	0.686768
1021.0	-2.66048	2.639566	11.010414	-2.585492	2.694926	-1.027782	-0.592773	0.011475	0.668945
1022.0	-0.960101	-1.622047	11.22641	-1.114164	2.262175	-0.882404	-0.603271	0.004883	0.657715
1023.0	1.806631	3.081861	14.031322	1.063527	2.394732	-1.113615	-0.622803	0.000488	0.641846
1024.0	2.57478	5.64065	14.983725	-0.517581	3.332802	-1.078756	-0.644043	-0.008301	0.619141
1025.0	1.850991	1.926856	11.467144	-0.944722	3.962228	-1.070094	-0.660889	-0.021484	0.601318
1026.0	2.23522	1.920689	10.865817	-0.511985	4.242833	-1.141443	-0.686768	-0.032471	0.56958
1027.0	2.768134	1.266125	9.944507	-0.663757	4.633137	-1.217338	-0.705322	-0.052246	0.535889
1028.0	3.329877	0.413854	8.934782	-0.450764	4.890332	-1.283776	-0.729248	-0.056641	0.50415
1029.0	4.300683	0.551698	8.710381	-0.191163	5.103201	-1.312829	-0.748047	-0.072021	0.470215
1030.0	5.212236	0.681454	8.563182	-0.115158	5.329315	-1.296531	-0.765137	-0.080566	0.424805
1031.0	5.782895	0.935024	8.455596	-0.106009	5.537096	-1.253654	-0.781982	-0.095947	0.384033
1032.0	6.814332	0.9947	8.706579	-0.013582	5.553447	-1.12698	-0.794434	-0.109131	0.350098
1033.0	8.306701	1.199825	8.992678	0.022958	5.794161	-1.128383	-0.80249	-0.124268	0.316406
1034.0	9.157533	0.895127	9.282306	-0.107844	5.955788	-1.115235	-0.819824	-0.130859	0.282227
1035.0	10.684375	1.034239	9.706314	0.102958	6.112262	-1.262659	-0.830322	-0.139648	0.232422
1036.0	11.461954	1.761093	10.004971	0.07328	6.268985	-1.296863	-0.845215	-0.143799	0.193604
1037.0	12.302224	1.670431	10.329995	0.18142	6.263866	-1.299614	-0.85376	-0.152588	0.143799
1038.0	13.680196	2.232377	11.676711	0.29088	6.259905	-1.35558	-0.866455	-0.156738	0.086914
1039.0	15.789335	1.993898	13.063814	0.304251	6.300786	-1.412214	-0.866455	-0.161133	0.04126
1040.0	18.607906	2.622816	14.703816	0.599652	6.40107	-1.507361	-0.876953	-0.16748	-0.008545
1041.0	21.63172	3.612728	16.004053	0.566659	6.609103	-1.542394	-0.872559	-0.171875	-0.061035
1042.0	24.339328	4.363006	16.081925	0.634585	6.847739	-1.585261	-0.865967	-0.169434	-0.115723
1043.0	27.24546	6.3951	15.623054	0.684163	7.018781	-1.634113	-0.861816	-0.166992	-0.172852
1044.0	29.17144	8.475743	13.647203	0.432938	7.186005	-1.706389	-0.846436	-0.166748	-0.236572
1045.0	30.965699	10.444855	11.624851	0.178652	7.154489	-1.829878	-0.831299	-0.168701	-0.293457
1046.0	32.512418	12.313197	9.254374	-0.328117	7.159441	-2.024212	-0.82251	-0.16626	-0.355225
1047.0	29.537206	13.489326	7.741705	-1.735666	7.396461	-2.184119	-0.818359	-0.164063	-0.421387
1048.0	31.701202	0.314503	-7.13955	-2.756122	5.857424	-1.794427	-0.805176	-0.166016	-0.489746
1049.0	33.703491	-4.25645	-3.042975	0.175578	5.59003	-3.287061	-0.779785	-0.198242	-0.552979
1050.0	33.965089	5.665036	-4.088164	1.039513	5.617773	-4.01363	-0.747559	-0.235107	-0.615967
1051.0	33.085964	3.160398	-16.204457	-1.25334	5.034	-3.448272	-0.711914	-0.252197	-0.675049
1052.0	30.964876	-7.132278	-24.849	-1.662262	3.042769	-2.670846	-0.694092	-0.258545	-0.720459
1053.0	27.948924	-12.782746	-32.497003	-0.421961	1.992819	-1.859854	-0.689209	-0.271484	-0.749756
1054.0	19.283329	-8.580378	-37.687639	-0.699524	-0.362074	-0.609711	-0.711182	-0.26709	-0.754395
1055.0	16.957536	-6.013312	-32.045894	-0.469378	-4.343825	1.008815	-0.783691	-0.254639	-0.734131
1056.0	1.707635	-9.957061	-7.861592	-0.720557	-5.682846	2.29091	-0.865479	-0.233398	-0.697998
1057.0	21.410282	2.562486	39.792845	0.264601	-6.627678	1.693596	-0.931641	-0.216553	-0.664063
1058.0	20.017997	1.902425	8.874493	-1.445407	-3.553686	1.424751	-0.980469	-0.195068	-0.643799
1059.0	3.993952	-6.29008	3.579432	-0.822529	-4.774322	1.384376	-1.05127	-0.173828	-0.587158
1060.0	27.408725	-5.103353	24.388964	2.888728	-6.873504	0.83181	-1.107178	-0.189453	-0.525391
1061.0	26.749379	10.98434	15.991001	1.803885	-4.302121	0.619918	-1.146973	-0.178955	-0.484375
1062.0	12.686878	5.449632	12.465982	-0.460117	-3.638082	1.221496	-1.191162	-0.164063	-0.436768
1063.0	24.372651	10.880677	19.89817	1.738792	-4.264774	0.560883	-1.213135	-0.162109	-0.386719
1064.0	23.013748	24.226686	21.439954	-2.129085	-1.118908	0.897786	-1.221191	-0.127441	-0.401123
1065.0	0.583683	-0.319238	6.595902	-7.915885	-0.463386	1.25203	-1.234131	-0.081543	-0.390625
1066.0	14.208616	-8.75441	14.060971	-1.711629	-1.227924	1.95811	-1.246094	-0.059814	-0.393311
1067.0	7.724861	0.549215	9.419613	-1.039003	0.523437	-0.404827	-1.239502	-0.062012	-0.395508
1068.0	4.21803	0.741819	10.991707	-1.080602	-0.206055	0.112114	-1.241943	-0.057617	-0.397705
1069.0	5.273094	-0.105381	8.342783	-0.283232	-0.432982	0.100142	-1.248535	-0.05542	-0.393311
1070.0	5.917078	1.806668	10.106391	-0.121004	-0.35263	0.048487	-1.25293	-0.05127	-0.384277
1071.0	6.185495	0.064925	8.193609	-1.180551	-0.658323	0.312749	-1.257813	-0.040283	-0.38208
1072.0	5.288779	-2.322011	8.461948	0.40276	-0.195329	-0.016529	-1.259766	-0.046875	-0.377441
1073.0	5.333375	1.850371	9.784757	0.339908	-0.315025	-0.193588	-1.257568	-0.049072	-0.375244
1074.0	5.566343	0.166179	8.309544	0.307437	-0.32076	-0.25021	-1.263672	-0.055664	-0.365967
1075.0	5.461912	1.351399	9.546456	0.374572	-0.222983	-0.263088	-1.267822	-0.060059	-0.365723
1076.0	5.654016	-0.054498	8.612425	0.307358	-0.209928	-0.271528	-1.267822	-0.064453	-0.363525
1077.0	5.27712	1.792292	9.536965	0.47607	-0.23924	-0.147841	-1.271973	-0.06665	-0.365723
1078.0	5.245914	1.130647	8.862447	0.154012	-0.338931	-0.053854	-1.269775	-0.068848	-0.356445
1079.0	5.633238	1.641159	8.623518	0.421225	-0.171892	-0.248764	-1.265137	-0.073242	-0.351807
1080.0	5.551049	2.406982	9.043871	0.09441	-0.182943	-0.103758	-1.276123	-0.073242	-0.351807
1081.0	5.439664	1.19322	8.609157	0.111702	-0.147339	-0.05422	-1.271484	-0.075439	-0.349609
1082.0	5.36934	1.239536	8.751545	0.14166	-0.122645	-0.107052	-1.275635	-0.079834	-0.349609
1083.0	5.486684	1.910587	8.626638	0.160262	-0.121756	-0.066924	-1.273682	-0.075439	-0.335938
1084.0	4.663783	1.748472	9.847335	-0.433991	-0.299186	0.331099	-1.280273	-0.073242	-0.342773
1085.0	5.726293	0.040518	7.401181	0.540376	-0.04679	-0.142606	-1.273438	-0.079834	-0.333496
1086.0	4.748538	3.046182	10.077153	-0.198262	-0.248472	0.129196	-1.282471	-0.077637	-0.333496
1087.0	5.995897	0.65559	7.502254	0.234228	-0.122039	0.036976	-1.277832	-0.079834	-0.32666
1088.0	5.008664	2.048506	9.157722	-0.107017	-0.208984	0.102021	-1.273438	-0.082031	-0.335693
1089.0	5.150729	0.501139	8.469068	-0.066532	-0.222223	0.099259	-1.26709	-0.075439	-0.326904
1090.0	5.171612	1.631558	8.785043	0.309098	-0.168709	-0.008398	-1.258545	-0.075439	-0.331299
1091.0	5.214978	1.859557	9.111921	-0.062818	-0.264544	0.213315	-1.257568	-0.049072	-0.336426
1092.0	5.461046	0.039143	7.692475	0.221693	-0.200915	-0.030166	-1.277588	-0.040527	-0.327393
1093.0	5.045739	2.66482	9.827177	0.060131	-0.274201	0.155862	-1.294922	-0.038574	-0.316162
1094.0	5.662885	-0.133946	7.626626	0.003227	-0.305319	0.088669	-1.299072	-0.047363	-0.315918
1095.0	5.425209	2.141334	9.165136	0.334727	-0.233257	0.066991	-1.294434	-0.053711	-0.313477
1096.0	5.488076	1.153315	8.305173	-0.048362	-0.369431	0.180121	-1.300781	-0.053955	-0.302002
1097.0	5.260437	0.748419	8.432688	0.103702	-0.321947	0.085452	-1.296387	-0.055908	-0.304443
1098.0	5.520387	0.763776	8.266375	0.381768	-0.378772	-0.115438	-1.29834	-0.0625	-0.297363
1099.0	4.849142	4.972283	10.810644	0.089638	-0.411801	0.601898	-1.30542	-0.051758	-0.288574
1100.0	5.535345	-1.203963	6.413222	-0.491124	-0.831735	0.339088	-1.303223	-0.051758	-0.281738
1101.0	4.315087	1.055621	10.527004	0.604052	-0.615808	0.36582	-1.307861	-0.045166	-0.270264
1102.0	5.597701	1.68786	8.150658	0.245684	-0.889873	0.195355	-1.312012	-0.049805	-0.258789
1103.0	5.01549	0.897267	9.400733	0.255591	-0.981277	0.193966	-1.312012	-0.047607	-0.245361
1104.0	5.414668	0.8522	8.750917	0.442337	-1.209135	0.082618	-1.322754	-0.049805	-0.231445
1105.0	5.12131	0.776181	9.588411	0.445473	-1.376673	-0.014429	-1.323242	-0.043213	-0.215576
1106.0	5.275196	0.974299	9.120401	0.510509	-1.792579	-0.114072	-1.33374	-0.050049	-0.181396
1107.0	5.480038	1.244576	9.056747	0.494916	-1.982654	-0.177919	-1.342041	-0.061035	-0.162842
1108.0	5.384884	1.295921	9.226011	0.458331	-2.298837	-0.236319	-1.35083	-0.059082	-0.126465
1109.0	5.374829	1.201799	8.663834	0.446433	-2.659682	-0.26792	-1.354736	-0.065674	-0.092041
1110.0	5.801239	1.450462	8.770798	0.416709	-2.884374	-0.269047	-1.365479	-0.070313	-0.048828
1111.0	5.357396	1.531427	8.885195	0.455221	-3.288968	-0.244378	-1.369629	-0.074707	-0.007568
1112.0	5.163187	1.498356	8.98071	0.430252	-3.674019	-0.180812	-1.376221	-0.072754	0.037842
1113.0	5.210565	1.671805	8.958519	0.536564	-4.08713	-0.060122	-1.384766	-0.077148	0.099609
1114.0	4.929227	1.938703	9.06217	0.699842	-4.538463	0.161515	-1.387207	-0.072998	0.158691
1115.0	5.470502	3.128537	10.060021	0.634379	-4.73024	0.659379	-1.396484	-0.062256	0.222412
1116.0	4.008153	2.809634	10.509464	-0.007389	-5.367827	1.14961	-1.390381	-0.049561	0.304199
1117.0	2.257386	1.874651	8.709026	0.029857	-6.036522	1.537614	-1.387207	-0.025635	0.385742
1118.0	3.477459	3.424847	9.513223	-0.715598	-7.288482	1.793749	-1.378906	-0.010498	0.492432
1119.0	3.335549	2.44663	5.788196	-1.108914	-8.606031	1.668094	-1.344727	0.004639	0.610596
1120.0	10.807525	2.790709	6.837534	-0.348211	-10.437233	1.471248	-1.302002	0.021973	0.749268
1121.0	19.034396	2.587827	8.881782	-0.210267	-10.625237	0.97453	-1.253906	0.02417	0.89502
1122.0	33.626233	0.751835	7.958472	1.233272	-10.423101	0.540024	-1.180908	0.04834	1.006104
1123.0	32.936024	2.663837	9.631145	2.867946	-8.095316	0.028038	-1.133789	0.068115	1.085449
1124.0	34.090203	7.188666	14.934265	3.01612	-7.093308	0.264562	-1.094238	0.107422	1.148438
1125.0	30.685325	6.215284	14.770926	3.986006	-6.0671	0.624956	-1.054932	0.155518	1.193115
1126.0	28.314543	6.266136	21.756986	5.836801	-5.835977	0.243358	-1.025635	0.232178	1.214355
1127.0	9.075779	9.634693	21.07357	9.169619	-5.503501	0.673102	-0.990967	0.337158	1.235107
1128.0	16.721943	23.502101	45.638743	2.61642	-4.22371	2.283661	-1.008789	0.345703	1.22583
1129.0	25.87457	15.002175	31.946592	-3.944432	2.1554	0.447613	-1.091064	0.279785	1.165527
1130.0	-0.867294	6.983235	16.340365	-3.1984	3.586344	-0.154974	-1.16333	0.238037	1.08667
1131.0	-4.947481	5.59297	13.064704	-2.655119	2.808217	0.033381	-1.222656	0.19873	0.996338
1132.0	-3.117512	1.094439	11.304626	-2.504388	2.797307	-0.054851	-1.26709	0.167969	0.908203
1133.0	-4.272418	-0.726435	9.687689	-1.089811	2.640112	-0.431672	-1.299072	0.155029	0.805908
1134.0	-1.499056	1.343771	11.750839	0.894414	2.258111	-0.773305	-1.314209	0.148682	0.696777
1135.0	2.155683	5.404214	14.472066	0.956244	2.810192	-0.998759	-1.311035	0.129395	0.580811
1136.0	3.133838	5.365516	13.935823	-0.279106	3.693647	-1.034435	-1.286377	0.110107	0.458252
1137.0	3.973471	3.271416	12.496797	-0.556917	4.324767	-1.094325	-1.233398	0.097656	0.339844
1138.0	4.649971	2.173216	11.499993	-0.7565	4.910573	-1.155613	-1.147949	0.089844	0.239502
1139.0	4.809088	0.405064	9.693116	-0.849092	5.375545	-1.212303	-1.058594	0.088379	0.189453
1140.0	5.277043	-0.458929	8.405794	-0.49079	5.615908	-1.284261	-0.984619	0.093018	0.187012
1141.0	5.945564	-0.054192	7.886085	-0.144944	5.775103	-1.31185	-0.940674	0.089111	0.200684
1142.0	6.35108	1.093899	7.626364	-0.14819	5.886395	-1.224601	-0.953369	0.077881	0.209961
1143.0	7.316682	0.961974	7.833743	-0.100454	5.740544	-1.066359	-0.976318	0.053955	0.201416
1144.0	9.233634	1.285608	8.424098	-0.127907	5.861971	-0.913138	-1.008057	0.031982	0.169922
1145.0	10.861509	0.717555	8.774472	-0.434413	6.150446	-1.067269	-1.035645	0.014404	0.11792
1146.0	11.688587	0.979248	9.093137	-0.204483	6.282537	-1.115506	-1.050293	0.001465	0.068115
1147.0	13.21933	1.188533	9.535527	-0.088612	6.342513	-1.160613	-1.069092	-0.018311	-0.002197
1148.0	14.113971	1.595911	9.685568	0.035628	6.424289	-1.220067	-1.0896	-0.048828	-0.088135
1149.0	14.618643	2.647111	9.492297	0.186567	6.498408	-1.292826	-1.081543	-0.083252	-0.197021
1150.0	15.191917	3.781201	10.071087	0.234453	6.342711	-1.198039	-1.027588	-0.115479	-0.3125
1151.0	16.451166	4.627955	10.686426	0.302134	6.208178	-1.260081	-0.914063	-0.123291	-0.39917
1152.0	18.256681	5.93439	11.650789	0.319696	6.107384	-1.395598	-0.781738	-0.102539	-0.443115
1153.0	20.425588	7.569912	12.231384	0.336109	6.001464	-1.589491	-0.67627	-0.071289	-0.443848
1154.0	23.673793	9.160364	12.897501	0.188472	6.029092	-1.853845	-0.616211	-0.049072	-0.428467
1155.0	26.648114	10.579233	12.546404	-0.103422	6.137708	-2.163062	-0.57373	-0.024902	-0.424316
1156.0	28.483352	11.340806	11.236378	-0.591381	6.359917	-2.475126	-0.554443	-0.018311	-0.435791
1157.0	27.972336	9.887497	8.966626	-1.220147	6.495876	-2.750217	-0.52002	-0.00708	-0.440674
1158.0	26.820147	6.36797	6.035299	-1.445277	6.362407	-2.953093	-0.493896	-0.009033	-0.456543
1159.0	25.238088	1.021842	4.267281	-1.569798	6.120409	-3.117647	-0.469971	-0.006592	-0.474854
1160.0	25.232075	-2.222264	-0.34778	-0.419717	5.46838	-3.472384	-0.458496	-0.019531	-0.488281
1161.0	25.034175	3.327739	-2.895909	0.489483	4.895492	-3.348205	-0.44043	-0.030273	-0.506348
1162.0	26.362684	4.235963	-5.614514	-0.716654	4.005455	-2.328252	-0.425537	-0.025879	-0.529297
1163.0	26.991544	-0.58751	-10.047499	-1.776852	3.754802	-1.64853	-0.418945	-0.023682	-0.536133
1164.0	32.47764	-10.224335	-15.685855	-1.074257	2.243259	-0.573465	-0.414795	-0.019287	-0.547607
1165.0	31.043398	-15.061832	-24.499043	0.924937	2.209383	-0.27648	-0.403564	-0.027832	-0.558838
1166.0	17.773726	-6.683878	-20.999167	3.357799	1.676962	0.382507	-0.394531	-0.034424	-0.561035
1167.0	13.388027	3.259563	-27.199501	-0.376959	-0.993886	1.23156	-0.416992	-0.021484	-0.554443
1168.0	7.720515	1.810788	-27.623634	-0.682256	-3.508497	2.924589	-0.455322	0.008789	-0.534424
1169.0	-2.581072	-4.036115	5.835406	-0.507473	-5.492849	3.506773	-0.504395	0.034668	-0.514404
1170.0	21.017191	15.904988	27.087602	1.243403	-5.404818	0.780466	-0.531006	0.043213	-0.487305
1171.0	13.29196	14.036482	3.501524	-2.020595	-3.726321	1.033614	-0.558594	0.073486	-0.471924
1172.0	10.178356	-7.699277	11.628897	-1.903051	-5.287022	1.470008	-0.603027	0.092773	-0.428955
1173.0	25.175256	-4.688845	19.690015	2.799326	-6.728421	0.565534	-0.631348	0.090332	-0.401367
1174.0	21.688912	9.183617	13.399681	0.935683	-4.64219	1.168924	-0.658203	0.107666	-0.367676
1175.0	13.782954	5.873163	10.930144	-0.089261	-4.347422	0.76664	-0.684814	0.120361	-0.340576
1176.0	40.613295	20.952567	32.327243	2.833675	-4.50486	0.950032	-0.700439	0.126709	-0.324707
1177.0	6.660248	16.092328	7.544886	-9.067301	0.33702	0.918376	-0.702881	0.179199	-0.316406
1178.0	8.584252	-11.833504	17.426012	-7.673584	-0.892003	1.786092	-0.704346	0.211914	-0.305664
1179.0	9.23285	-7.325661	3.897657	-1.920947	0.027302	0.571577	-0.706787	0.218506	-0.305908
1180.0	7.281155	4.420062	15.264083	-0.902242	0.546802	-0.056376	-0.707031	0.227051	-0.303711
1181.0	4.210989	-0.08757	6.658896	-2.419819	-0.043806	0.492216	-0.70752	0.233643	-0.303955
1182.0	6.820349	0.882735	9.146249	-0.071255	-0.069992	0.185254	-0.714355	0.240234	-0.303955
1183.0	7.022156	-3.149019	8.494628	-0.950905	-0.194153	0.252007	-0.714111	0.238037	-0.303955
1184.0	4.947512	-0.511872	9.408648	1.178527	-0.074295	-0.174568	-0.714111	0.23584	-0.301758
1185.0	5.612929	0.773443	10.877532	-0.186636	-0.406576	-0.014876	-0.711914	0.238037	-0.299561
1186.0	5.312705	-2.72662	7.878719	0.606322	-0.357156	-0.177762	-0.722656	0.233643	-0.297119
1187.0	4.809564	1.781122	10.905883	0.926354	-0.546395	-0.36632	-0.718018	0.227051	-0.29248
1188.0	5.677119	0.222245	8.492858	0.382286	-0.741547	-0.206696	-0.724609	0.229248	-0.296875
1189.0	5.337464	0.085609	8.65754	0.699533	-0.537211	-0.401295	-0.726563	0.220459	-0.287598
1190.0	5.543441	1.319896	8.658856	0.607263	-0.451085	-0.541592	-0.728516	0.218262	-0.289795
1191.0	5.664818	1.468642	8.90446	0.357481	-0.357426	-0.39107	-0.730469	0.21167	-0.287598
1192.0	5.755386	1.217548	8.527947	0.39712	-0.257218	-0.341554	-0.734619	0.205078	-0.280518
1193.0	5.226687	-0.360089	8.240626	0.241756	-0.324506	-0.622235	-0.727783	0.200684	-0.275879
1194.0	5.668807	2.177647	8.883751	0.773624	-0.166001	-0.70653	-0.729736	0.196289	-0.280273
1195.0	5.530888	2.710979	8.937195	0.241679	-0.334376	-0.387069	-0.729736	0.194092	-0.275879
1196.0	4.558549	0.256496	9.272177	-0.134539	-0.426858	-0.227086	-0.736084	0.191895	-0.27124
1197.0	6.316757	1.171032	7.152764	0.950563	-0.153175	-0.689214	-0.738037	0.185303	-0.268799
1198.0	5.380948	5.877956	10.523609	0.099071	-0.286374	-0.05758	-0.744385	0.180908	-0.268555
1199.0	5.935242	-2.021993	5.238037	-0.089574	-0.426292	-0.370516	-0.73999	0.178711	-0.266357
1200.0	5.165502	5.027333	10.724825	0.671265	-0.132111	-0.22215	-0.744141	0.178711	-0.266357
1201.0	4.782788	-0.206188	7.839512	-0.574091	-0.562934	-0.03121	-0.739746	0.176514	-0.266357
1202.0	5.773166	3.554503	9.277241	0.989118	-0.111617	-0.049319	-0.750732	0.178711	-0.26416
1203.0	5.485495	0.140748	7.612509	-0.435492	-0.533299	-0.134009	-0.741699	0.172119	-0.259277
1204.0	5.385057	2.801639	9.375931	0.754648	-0.142395	-0.146844	-0.74585	0.167725	-0.25708
1205.0	5.27567	1.653536	8.583894	0.103316	-0.659402	0.134167	-0.741699	0.169922	-0.252441
1206.0	5.156697	-0.143832	8.116985	0.319838	-0.308626	-0.226387	-0.74585	0.16333	-0.254639
1207.0	6.223914	4.144504	8.829716	0.62998	-0.198368	-0.194041	-0.739258	0.163574	-0.247803
1208.0	5.657029	-0.175336	7.228547	-0.261746	-0.31607	-0.278236	-0.741211	0.15918	-0.25
1209.0	5.631457	2.870413	8.945083	0.851957	-0.043987	-0.330838	-0.732666	0.161377	-0.256836
1210.0	5.699624	2.841585	8.541894	0.088943	-0.28401	-0.082604	-0.739258	0.165771	-0.25708
1211.0	5.416565	4.259493	9.843825	0.193111	-0.515809	0.631243	-0.741943	0.174316	-0.252686
1212.0	5.624995	-1.57199	6.369054	-0.37825	-0.49469	0.2796	-0.750732	0.176514	-0.243408
1213.0	6.601491	3.302789	7.678543	1.035126	-0.024762	-0.195375	-0.750732	0.178711	-0.248047
1214.0	5.570054	3.857026	9.218805	-0.266085	-0.258988	0.371795	-0.755127	0.178711	-0.241211
1215.0	6.596525	0.214316	6.330889	0.07936	-0.143069	0.110282	-0.755127	0.176514	-0.239014
1216.0	5.543749	2.141288	9.031615	0.111967	-0.172119	-0.036579	-0.765869	0.174072	-0.241211
1217.0	5.207645	1.936761	9.346573	-0.26978	-0.298663	0.286381	-0.757324	0.178711	-0.236572
1218.0	4.993636	1.827234	8.987962	0.137527	-0.076311	0.391691	-0.759277	0.176514	-0.232178
1219.0	6.763022	3.684802	6.863172	0.33471	-0.01005	0.308154	-0.757324	0.178467	-0.229736
1220.0	6.245558	0.621266	7.918992	-0.832605	-0.331617	0.260847	-0.76416	0.187256	-0.22998
1221.0	4.70838	2.842708	10.090879	0.047193	-0.120318	0.593532	-0.759766	0.187256	-0.234619
1222.0	6.723723	2.112594	5.979158	0.162165	-0.065223	0.37655	-0.761963	0.185059	-0.22998
1223.0	5.242036	1.701022	9.428398	-0.32478	-0.445351	0.631534	-0.762451	0.198242	-0.225586
1224.0	4.974974	3.085242	9.636119	0.353184	-0.224517	0.956195	-0.760254	0.198242	-0.221191
1225.0	7.348561	-0.465923	5.054228	0.245346	-0.310342	0.561019	-0.762695	0.200439	-0.22583
1226.0	6.277993	3.016244	9.981581	0.666607	-0.216465	0.966474	-0.760742	0.207031	-0.22583
1227.0	6.127664	0.089865	7.24272	0.718573	-0.215201	1.511839	-0.750488	0.222168	-0.228516
1228.0	5.660079	3.214323	9.334994	1.595638	-0.142724	2.046909	-0.759766	0.233154	-0.230957
1229.0	6.136675	3.373698	8.19727	1.810618	-0.171821	2.763195	-0.747314	0.246338	-0.233398
1230.0	6.231517	3.555318	8.0899	2.217432	-0.116554	3.530649	-0.741699	0.266113	-0.238525
1231.0	6.65436	3.491265	7.6554	2.674566	-0.015632	4.218844	-0.731934	0.294434	-0.243652
1232.0	6.620625	3.93163	7.182924	3.158431	0.123606	4.86849	-0.721924	0.312012	-0.259766
1233.0	6.502615	4.938334	8.685377	2.943366	0.095393	5.675767	-0.708008	0.342773	-0.271973
1234.0	6.764061	2.085161	6.481175	3.194085	0.121417	5.855325	-0.694092	0.373291	-0.2771
1235.0	6.579468	3.081771	7.636975	3.888677	0.150188	5.872276	-0.673096	0.393066	-0.298096
1236.0	6.302929	3.240916	8.093751	3.617921	0.114553	5.922767	-0.65918	0.421631	-0.312256
1237.0	6.295275	2.261377	7.984875	3.574056	0.090854	5.90023	-0.635986	0.441406	-0.330811
1238.0	6.068904	2.188445	8.216164	3.639445	0.052754	5.877066	-0.613037	0.463623	-0.349609
1239.0	5.962689	1.756051	8.454107	3.53676	-0.076045	5.923138	-0.596436	0.483398	-0.36377
1240.0	5.965297	1.049281	8.215334	3.583554	-0.202616	5.993293	-0.575439	0.500977	-0.377686
1241.0	5.935495	0.605261	8.270933	3.697842	-0.287191	5.994255	-0.547852	0.518555	-0.403076
1242.0	6.063205	0.23716	8.215402	3.770747	-0.35805	5.90251	-0.528809	0.529785	-0.414795
1243.0	5.762214	-0.521531	8.109407	3.827984	-0.350325	5.69088	-0.505127	0.538574	-0.43335
1244.0	6.763787	0.663084	7.35714	4.087312	-0.175247	5.528987	-0.477051	0.54541	-0.456299
1245.0	5.905586	0.913106	9.082275	3.929455	-0.315434	5.947986	-0.455566	0.547852	-0.474609
1246.0	6.239914	-0.98819	7.342851	4.010197	-0.345892	5.459802	-0.436035	0.550049	-0.495117
1247.0	6.8583	0.745225	7.948693	3.794537	-0.149101	5.067895	-0.409668	0.548096	-0.517822
1248.0	5.28988	-0.285844	9.113381	3.765193	-0.211059	5.381644	-0.389893	0.543945	-0.53833
1249.0	6.397025	-0.813542	7.51086	3.888202	-0.186215	5.124092	-0.361328	0.539795	-0.556396
1250.0	6.017422	0.306318	8.430543	3.80022	-0.104509	5.067179	-0.345703	0.529053	-0.579102
1251.0	5.77333	-1.359887	8.402105	3.576902	-0.145012	4.904101	-0.323242	0.518311	-0.604004
1252.0	6.769028	0.72538	7.685346	3.845678	0.027646	4.874754	-0.303467	0.51416	-0.615234
1253.0	5.515481	-2.160893	8.29265	3.27577	-0.074388	4.534099	-0.278809	0.49707	-0.635498
1254.0	6.640337	0.107809	7.753567	3.974637	0.138336	4.651913	-0.260742	0.484131	-0.648926
1255.0	6.076454	-0.109736	8.648743	3.321503	0.108375	4.788872	-0.244873	0.468994	-0.664551
1256.0	5.274411	-3.094362	7.751758	3.327557	0.042019	4.47774	-0.228516	0.449463	-0.682617
1257.0	6.687088	-1.913306	6.554358	3.992837	0.115849	3.748292	-0.212158	0.42334	-0.697998
1258.0	5.46674	0.399561	10.344811	3.588606	0.380013	4.355631	-0.192139	0.414795	-0.718262
1259.0	7.028495	-2.120097	5.289983	3.134969	0.320283	3.54576	-0.177734	0.386475	-0.729248
1260.0	5.286478	-0.499851	10.250276	3.397642	0.422362	4.022822	-0.168213	0.364746	-0.742432
1261.0	5.6098	-2.525624	7.386857	2.831991	0.421311	3.712539	-0.1521	0.345215	-0.753418
1262.0	6.477709	-2.429659	6.66227	3.378586	0.484505	2.759689	-0.133301	0.314941	-0.766602
1263.0	5.362548	1.633172	10.828792	3.052303	0.739066	3.83747	-0.121582	0.299805	-0.775391
1264.0	5.312561	-4.357389	6.693156	2.535784	0.469892	3.180707	-0.116211	0.275879	-0.781738
1265.0	6.326675	0.208403	8.60042	3.385345	0.62035	2.865751	-0.0979	0.256348	-0.78833
1266.0	5.117573	-1.773695	8.840278	2.330016	0.594649	2.923056	-0.094727	0.234375	-0.794678
1267.0	5.290762	-2.004854	8.529968	2.833487	0.619601	2.606037	-0.084717	0.203857	-0.794189
1268.0	5.543312	-1.664843	8.664654	2.733256	0.588056	2.24313	-0.075195	0.186523	-0.802979
1269.0	5.97953	0.524067	8.862556	2.634291	0.718508	2.277051	-0.062988	0.1604	-0.809326
1270.0	5.708365	-1.722352	8.454213	2.163516	0.59351	2.211698	-0.062256	0.143066	-0.808838
1271.0	4.793102	0.283448	9.257526	2.453668	0.606062	1.798884	-0.059082	0.121338	-0.80835
1272.0	5.1514	-0.187865	9.473977	1.298499	0.415607	1.329157	-0.05249	0.116943	-0.817383
1273.0	4.785198	-4.143333	8.701042	1.015674	0.438395	0.737745	-0.047607	0.108154	-0.810547
1274.0	3.805307	-4.31817	9.069114	1.181206	0.333508	-0.150591	-0.044922	0.097412	-0.8125
1275.0	4.778159	-3.981081	8.540033	1.276137	0.233381	-0.904082	-0.046387	0.082031	-0.821289
1276.0	5.776763	-3.630375	7.963622	1.540341	0.174403	-1.46841	-0.048096	0.068848	-0.821045
1277.0	5.560956	-2.346393	8.045827	2.207383	-0.031073	-1.910401	-0.046875	0.044922	-0.818359
1278.0	7.088758	1.366668	8.238365	2.679772	-0.057455	-1.90873	-0.048584	0.029785	-0.820313
1279.0	6.719721	1.828078	9.493424	1.96855	0.068759	-1.245886	-0.047607	0.007813	-0.817627
1280.0	6.264528	0.325493	9.399591	1.582595	0.152973	-0.73143	-0.047119	-0.003174	-0.824219
1281.0	7.189507	-2.754728	10.65085	1.097398	0.133103	0.094407	-0.048828	-0.011719	-0.821777
1282.0	9.19602	-9.047194	9.292066	0.498936	0.088747	1.521474	-0.048584	-0.013916	-0.817139
1283.0	10.665582	-12.775385	6.548573	1.542491	0.337967	2.958194	-0.050293	-0.024902	-0.821533
1284.0	11.431004	-10.246801	7.794069	2.830231	0.542734	4.122248	-0.049316	-0.051025	-0.830078
1285.0	11.604565	-6.534151	6.786876	2.874126	0.609485	4.508535	-0.048584	-0.064209	-0.832031
1286.0	11.219953	-3.812828	5.458905	3.539583	0.621832	4.834218	-0.05835	-0.092529	-0.824707
1287.0	11.935963	0.342367	5.736509	3.71014	0.789467	4.92285	-0.055176	-0.114502	-0.828857
1288.0	11.180515	3.07544	5.184173	3.343913	1.017047	4.827792	-0.060547	-0.138428	-0.826172
1289.0	8.656716	5.012257	6.512828	3.167345	1.122273	4.991799	-0.061768	-0.158203	-0.821289
1290.0	7.626065	4.640676	3.332298	3.063796	0.852186	3.831728	-0.058838	-0.179932	-0.820801
1291.0	9.291522	10.924073	0.135978	3.995341	0.882496	3.350478	-0.063965	-0.210449	-0.813232
1292.0	6.910561	10.801892	4.900166	2.222041	0.516703	2.924769	-0.065674	-0.221436	-0.812988
1293.0	7.801268	12.467945	-1.199552	2.938409	0.216295	2.842257	-0.071045	-0.245605	-0.805664
1294.0	7.685737	12.435709	-0.710327	2.276985	-0.2815	1.462365	-0.085449	-0.263184	-0.798584
1295.0	7.053639	12.741538	0.517164	1.838623	-0.676587	0.690563	-0.091309	-0.27832	-0.795898
1296.0	11.412941	11.433288	2.684835	0.973291	-0.987706	-0.271935	-0.099365	-0.293701	-0.795654
1297.0	13.759622	13.452999	13.096721	1.06514	-0.334432	-0.525531	-0.109863	-0.30249	-0.793213
1298.0	4.766376	8.76968	8.88448	-2.035305	0.301088	-0.718775	-0.102051	-0.282715	-0.802734
1299.0	3.390547	0.129293	5.755562	-1.634097	-0.050582	-0.477043	-0.113281	-0.278564	-0.800537
1300.0	3.780942	0.785328	12.460442	-0.081689	0.132864	-0.447635	-0.110596	-0.285156	-0.800293
1301.0	1.717168	1.130102	15.375005	-0.511725	0.479555	-0.045351	-0.115479	-0.278564	-0.802734
1302.0	-2.209432	-1.150981	12.225818	-0.214879	0.48405	0.308669	-0.11084	-0.282959	-0.802734
1303.0	-2.010495	1.164246	14.935919	0.481355	0.473202	0.469673	-0.114746	-0.291748	-0.797852
1304.0	-2.98613	2.30087	14.689894	0.131009	0.44524	0.542502	-0.110596	-0.287354	-0.798096
1305.0	-2.368599	1.952782	13.978283	0.00045	0.339173	0.440267	-0.108154	-0.291504	-0.795654
1306.0	-0.016788	1.752311	12.452442	-0.207306	0.184772	0.184477	-0.108398	-0.287354	-0.795898
1307.0	4.851144	0.328101	9.505039	-0.586396	-0.032634	0.054499	-0.108643	-0.280762	-0.798096
1308.0	6.496486	-1.586788	6.221783	0.070461	-0.13062	-0.078789	-0.112793	-0.287354	-0.800293
1309.0	5.837699	3.141772	9.273357	0.689655	-0.084146	-0.191239	-0.110596	-0.289551	-0.798096
1310.0	5.384608	1.638591	8.484072	0.022941	-0.128576	-0.092572	-0.110596	-0.287354	-0.800293
1311.0	5.503244	1.916888	8.572131	0.173255	-0.109335	-0.027107	-0.119141	-0.289551	-0.795654
1312.0	5.705718	2.447224	8.39793	0.003608	-0.086203	0.037972	-0.116943	-0.289551	-0.798096
1313.0	5.708463	2.310618	8.426517	-0.115596	-0.031569	0.105565	-0.114746	-0.291748	-0.800293
1314.0	5.850752	1.735496	8.122667	-0.154899	0.035718	0.104191	-0.117188	-0.287354	-0.800293
1315.0	5.731385	1.854745	8.437927	-0.136815	0.101732	0.110532	-0.110596	-0.287354	-0.802734
1316.0	5.636991	1.689669	8.357619	-0.200779	0.135561	0.129532	-0.11499	-0.285156	-0.804932
1317.0	5.56689	1.757154	8.447616	-0.177709	0.16072	0.117486	-0.11084	-0.282959	-0.798096
1318.0	5.530571	1.525116	8.453929	-0.197605	0.153857	0.109223	-0.11084	-0.282959	-0.798096
1319.0	5.490319	1.502952	8.672449	-0.137572	0.137577	0.089013	-0.113037	-0.282959	-0.798096
1320.0	5.326802	1.349701	8.545505	-0.140688	0.104739	0.09002	-0.113281	-0.278564	-0.800537
